Data File Name,2100 expert_High Sensitivity DNA Assay_DE54700632_2019-09-05_14-26-31_manual_integration.xad
Data File Path,E:\201905_exports
Date Created,"Thursday, September 05, 2019 9:26:30 PM"
Date Last Modified,"Tuesday, November 03, 2020 12:54:25 AM"
Version Created,B.02.08.SI648
Version Last Modified,B.02.08.SI648
 
Assay Name,High Sensitivity DNA
Assay Path,C:\Program Files\Agilent\2100 bioanalyzer\2100 expert\assays\dsDNA
Assay Title,High Sensitivity DNA Assay
Assay Version,1.03
 
Number of Samples Run,11
 
Sample Name,sample 10
Number of Events,2121
 
Time,Value
32,0.1783981
32.05,0.1783981
32.1,0.1783981
32.15,0.1783981
32.2,0.1783981
32.25,0.1783981
32.3,0.1783981
32.35,9.554499E-02
32.4,5.253095E-02
32.45,2.483066E-02
32.5,1.979559E-02
32.55,7.039066E-02
32.6,8.502795E-02
32.65,5.445935E-02
32.7,-7.99013E-03
32.75,-9.011161E-02
32.8,-0.113726
32.85,-0.1193815
32.9,3.092781E-02
32.95,0.1659048
33,0.1980789
33.05,0.1507929
33.1,2.947963E-02
33.15,-0.1207995
33.2,-0.2315331
33.25,-0.2538019
33.3,-0.1222255
33.35,0.1131074
33.4,0.24473
33.45,0.328051
33.5,0.3159339
33.55,0.2633747
33.6,0.1179898
33.65,1.422388E-02
33.7,2.886928E-03
33.75,5.606656E-02
33.8,8.986282E-02
33.85,0.1357959
33.9,0.156437
33.95,0.1397666
34,5.580658E-02
34.05,-2.567466E-02
34.1,-8.140594E-02
34.15,-0.1323797
34.2,-0.1819765
34.25,-0.2286894
34.3,-0.2632593
34.35,-0.2628166
34.4,-0.2064649
34.45,-0.1422171
34.5,-6.553933E-02
34.55,-2.670786E-02
34.6,-3.910366E-02
34.65,-2.735661E-02
34.7,-0.0223681
34.75,0.0108712
34.8,7.252924E-02
34.85,4.865309E-02
34.9,8.552331E-03
34.95,-3.191504E-02
35,-6.949705E-02
35.05,-0.1145426
35.1,-0.1465236
35.15,-0.1209356
35.2,-5.127402E-02
35.25,1.223268E-02
35.3,5.563224E-02
35.35,7.500926E-02
35.4,5.086773E-02
35.45,-5.732928E-03
35.5,-6.107857E-02
35.55,-3.929762E-02
35.6,-2.682694E-02
35.65,-7.133213E-02
35.7,-9.760661E-02
35.75,-0.1436594
35.8,-0.181618
35.85,-0.2066696
35.9,-0.243096
35.95,-0.2965208
36,-0.3141601
36.05,-0.305661
36.1,-0.2342159
36.15,-0.1738996
36.2,-0.1390278
36.25,-0.1290159
36.3,-0.1572131
36.35,-0.1945708
36.4,-0.2140505
36.45,-0.1857077
36.5,-0.131668
36.55,-6.405602E-02
36.6,-1.060448E-02
36.65,3.775183E-02
36.7,-1.348355E-02
36.75,-4.309954E-02
36.8,-0.1240715
36.85,-0.1766897
36.9,-6.102035E-02
36.95,1.952635E-03
37,1.677893E-02
37.05,-3.434222E-02
37.1,-0.1583736
37.15,-0.2855682
37.2,-0.3117932
37.25,-0.2580513
37.3,-0.1877327
37.35,-0.1678953
37.4,-0.1803338
37.45,-0.1483768
37.5,-0.1478717
37.55,-0.1180546
37.6,-6.682524E-02
37.65,-4.067227E-02
37.7,-8.964051E-02
37.75,-0.1688361
37.8,-0.2146729
37.85,-0.2012763
37.9,-0.1916251
37.95,-0.1354833
38,-8.943658E-02
38.05,-7.937113E-02
38.1,-0.0925531
38.15,-0.1161254
38.2,-0.1231905
38.25,-0.1114835
38.3,-8.552394E-02
38.35,-9.749005E-02
38.4,-0.1642365
38.45,-0.2276055
38.5,-0.2786362
38.55,-0.3022456
38.6,-0.2525635
38.65,-0.2270136
38.7,-0.1649286
38.75,-0.1934106
38.8,-0.2483268
38.85,-0.2693057
38.9,-0.2192313
38.95,-0.2435721
39,-0.2327274
39.05,-0.2420354
39.1,-0.2442559
39.15,-0.2363446
39.2,-0.1775503
39.25,-0.1345321
39.3,-9.383629E-02
39.35,-6.788645E-02
39.4,-7.354842E-02
39.45,-9.418391E-02
39.5,-0.1271276
39.55,-0.1484883
39.6,-0.1621592
39.65,-0.1844537
39.7,-0.2358323
39.75,-0.2366908
39.8,-0.2759828
39.85,-0.298663
39.9,-0.3109694
39.95,-0.2703358
40,-0.2680277
40.05,-0.2254619
40.1,-0.2115548
40.15,-0.203024
40.2,-0.2139043
40.25,-0.2297555
40.3,-0.2596462
40.35,-0.2412788
40.4,-0.194546
40.45,-0.1766694
40.5,-0.1653425
40.55,-0.1195906
40.6,-5.525978E-02
40.65,-4.357238E-02
40.7,-5.826193E-02
40.75,-8.641841E-02
40.8,-8.957479E-02
40.85,-0.1700819
40.9,-0.2061058
40.95,-0.1921223
41,-0.2186939
41.05,-0.2864665
41.1,-0.2753287
41.15,-0.2995961
41.2,-0.3200807
41.25,-0.3303625
41.3,-0.3128117
41.35,-0.3122832
41.4,-0.3380981
41.45,-0.3300601
41.5,-0.290366
41.55,-0.2847875
41.6,-0.3155206
41.65,-0.3409236
41.7,-0.3611149
41.75,-0.3683482
41.8,-0.354239
41.85,-0.3320284
41.9,-0.2634814
41.95,-0.2370209
42,-0.1932616
42.05,-7.051562E-02
42.1,0.1284683
42.15,0.2733374
42.2,0.2796688
42.25,0.2025583
42.3,7.471575E-02
42.35,1.498615E-02
42.4,0.2503205
42.45,1.024994
42.5,2.692374
42.55,5.766525
42.6,10.78345
42.65,18.10134
42.7,27.85471
42.75,39.87743
42.8,53.11895
42.85,65.7006
42.9,75.80853
42.95,81.47759
43,81.49689
43.05,75.16014
43.1,64.08099
43.15,50.72137
43.2,37.05221
43.25,24.89794
43.3,15.46738
43.35,8.925186
43.4,4.906113
43.45,2.66916
43.5,1.558968
43.55,1.118172
43.6,0.9209373
43.65,0.7220228
43.7,0.5341926
43.75,0.390433
43.8,0.3010937
43.85,0.2423686
43.9,0.219432
43.95,0.2162086
44,0.2080184
44.05,0.1672374
44.1,0.1365727
44.15,8.498432E-02
44.2,2.598238E-02
44.25,4.728586E-02
44.3,0.092801
44.35,0.1329174
44.4,0.1707682
44.45,0.1879359
44.5,0.1621903
44.55,0.1444254
44.6,0.1665118
44.65,0.2204856
44.7,0.2663789
44.75,0.2840029
44.8,0.3339689
44.85,0.3820959
44.9,0.4063114
44.95,0.4000079
45,0.5852955
45.05,0.6291898
45.1,0.6344056
45.15,0.5259253
45.2,0.4314999
45.25,0.293018
45.3,0.1625832
45.35,2.438244E-02
45.4,-8.255714E-03
45.45,-7.874927E-02
45.5,-9.843919E-02
45.55,-8.577644E-02
45.6,-6.640343E-02
45.65,-3.796456E-02
45.7,0.0404931
45.75,0.2020153
45.8,0.3873683
45.85,0.5762755
45.9,0.6918051
45.95,0.6520929
46,0.4922329
46.05,0.2449044
46.1,0.072973
46.15,-1.817273E-03
46.2,-8.388712E-02
46.25,-0.1511418
46.3,-0.1861888
46.35,-0.2381649
46.4,-0.2461183
46.45,-0.2444298
46.5,-0.2147456
46.55,-0.2023743
46.6,-0.2364171
46.65,-0.3043613
46.7,-0.3620256
46.75,-0.385329
46.8,-0.3913819
46.85,-0.3857137
46.9,-0.3846105
46.95,-0.4170379
47,-0.4159669
47.05,-0.4241794
47.1,-0.4486451
47.15,-0.4184566
47.2,-0.4328034
47.25,-0.4357935
47.3,-0.4632296
47.35,-0.4522807
47.4,-0.3649625
47.45,-0.3298875
47.5,-0.3090423
47.55,-0.2982142
47.6,-0.3268449
47.65,-0.367889
47.7,-0.3687956
47.75,-0.297675
47.8,-0.1764813
47.85,-6.724117E-02
47.9,-4.002133E-03
47.95,-5.314816E-03
48,-9.940159E-02
48.05,-0.2185385
48.1,-0.3673526
48.15,-0.4424604
48.2,-0.4879797
48.25,-0.5030963
48.3,-0.4736676
48.35,-0.4481191
48.4,-0.390533
48.45,-0.3820359
48.5,-0.441051
48.55,-0.4869358
48.6,-0.550311
48.65,-0.6159164
48.7,-0.6315212
48.75,-0.584973
48.8,-0.5209202
48.85,-0.4766173
48.9,-0.4537944
48.95,-0.4378691
49,-0.4069968
49.05,-0.392909
49.1,-0.3794591
49.15,-0.3722602
49.2,-0.3624682
49.25,-0.2246203
49.3,-7.173873E-02
49.35,2.769075E-03
49.4,-1.481918E-02
49.45,-0.1764657
49.5,-0.3831525
49.55,-0.6167719
49.6,-0.7143371
49.65,-0.6805506
49.7,-0.6165333
49.75,-0.5552245
49.8,-0.5274398
49.85,-0.5358186
49.9,-0.5633086
49.95,-0.60283
50,-0.5820391
50.05,-0.4902211
50.1,-0.4586993
50.15,-0.4071241
50.2,-0.4265077
50.25,-0.524058
50.3,-0.6681835
50.35,-0.8222418
50.4,-0.8795151
50.45,-0.8252082
50.5,-0.8057534
50.55,-0.7392391
50.6,-0.7140253
50.65,-0.7100084
50.7,-0.6861576
50.75,-0.6680535
50.8,-0.6519197
50.85,-0.6277143
50.9,-0.6314278
50.95,-0.6446415
51,-0.6260636
51.05,-0.6237999
51.1,-0.6447889
51.15,-0.6643002
51.2,-0.6619632
51.25,-0.6390445
51.3,-0.6499851
51.35,-0.6330653
51.4,-0.6565594
51.45,-0.6411521
51.5,-0.6183673
51.55,-0.5966625
51.6,-0.5489255
51.65,-0.5345194
51.7,-0.5765761
51.75,-0.6462913
51.8,-0.7029567
51.85,-0.7057639
51.9,-0.6554854
51.95,-0.5644226
52,-0.479276
52.05,-0.4652735
52.1,-0.5130585
52.15,-0.5859486
52.2,-0.604018
52.25,-0.588787
52.3,-0.563526
52.35,-0.4684664
52.4,-0.4517802
52.45,-0.5254606
52.5,-0.6177711
52.55,-0.7044907
52.6,-0.7414802
52.65,-0.8052496
52.7,-0.8288738
52.75,-0.7768673
52.8,-0.7319079
52.85,-0.7011675
52.9,-0.678281
52.95,-0.652482
53,-0.6353363
53.05,-0.63366
53.1,-0.601547
53.15,-0.5434646
53.2,-0.517698
53.25,-0.5302488
53.3,-0.5070832
53.35,-0.5366474
53.4,-0.5354111
53.45,-0.495095
53.5,-0.4173889
53.55,-0.3784269
53.6,-0.3889594
53.65,-0.4721288
53.7,-0.5233958
53.75,-0.619213
53.8,-0.6933612
53.85,-0.6754571
53.9,-0.5479509
53.95,-0.4371848
54,-0.4308901
54.05,-0.5215856
54.1,-0.6729074
54.15,-0.837733
54.2,-0.9752983
54.25,-0.9898308
54.3,-0.9045758
54.35,-0.8362386
54.4,-0.8500261
54.45,-0.8439791
54.5,-0.8207701
54.55,-0.7935888
54.6,-0.7750213
54.65,-0.7646157
54.7,-0.749352
54.75,-0.789725
54.8,-0.8046927
54.85,-0.6945911
54.9,-0.5663382
54.95,-0.5133687
55,-0.5189905
55.05,-0.5556424
55.1,-0.6051586
55.15,-0.6761881
55.2,-0.731373
55.25,-0.6662549
55.3,-0.5982721
55.35,-0.622926
55.4,-0.6692514
55.45,-0.699503
55.5,-0.7338912
55.55,-0.8134411
55.6,-0.8738156
55.65,-0.8480015
55.7,-0.8379287
55.75,-0.8500676
55.8,-0.8175915
55.85,-0.7829231
55.9,-0.7612484
55.95,-0.7133616
56,-0.6593553
56.05,-0.6441435
56.1,-0.6365704
56.15,-0.6245437
56.2,-0.6215597
56.25,-0.61336
56.3,-0.6289772
56.35,-0.6316966
56.4,-0.6266452
56.45,-0.6704666
56.5,-0.7714746
56.55,-0.8106914
56.6,-0.8727637
56.65,-0.7064517
56.7,-0.5399607
56.75,-0.4865575
56.8,-0.5324854
56.85,-0.6424544
56.9,-0.8224415
56.95,-0.9041147
57,-0.8662434
57.05,-0.7879136
57.1,-0.7467573
57.15,-0.7691532
57.2,-0.8028604
57.25,-0.8072742
57.3,-0.812969
57.35,-0.8150555
57.4,-0.7783918
57.45,-0.7571356
57.5,-0.7274595
57.55,-0.6844118
57.6,-0.6429353
57.65,-0.6301349
57.7,-0.6441408
57.75,-0.6651855
57.8,-0.7457005
57.85,-0.7995213
57.9,-0.8413616
57.95,-0.8742172
58,-0.8842877
58.05,-0.87178
58.1,-0.8555222
58.15,-0.8384556
58.2,-0.8414698
58.25,-0.8562154
58.3,-0.8748969
58.35,-0.9102163
58.4,-0.9017523
58.45,-0.9011992
58.5,-0.8931518
58.55,-0.8926814
58.6,-0.9207049
58.65,-0.9338036
58.7,-0.913631
58.75,-0.9213967
58.8,-0.8896724
58.85,-0.8844042
58.9,-0.8831098
58.95,-0.8795269
59,-0.8512698
59.05,-0.7383609
59.1,-0.6339847
59.15,-0.598792
59.2,-0.5955426
59.25,-0.6407072
59.3,-0.765201
59.35,-0.9172978
59.4,-1.044711
59.45,-1.132344
59.5,-1.168904
59.55,-1.158557
59.6,-1.094717
59.65,-0.9943943
59.7,-0.9503542
59.75,-0.9294407
59.8,-0.8995082
59.85,-0.9488261
59.9,-0.9970412
59.95,-1.009638
60,-0.9738991
60.05,-0.9048534
60.1,-0.8557784
60.15,-0.8098743
60.2,-0.755556
60.25,-0.7447547
60.3,-0.7665015
60.35,-0.7773651
60.4,-0.7980862
60.45,-0.8466719
60.5,-0.9124682
60.55,-0.9493619
60.6,-0.9565758
60.65,-0.9524856
60.7,-0.9837067
60.75,-0.9839211
60.8,-0.9876694
60.85,-1.008061
60.9,-0.9821286
60.95,-0.9369701
61,-0.8872749
61.05,-0.8622602
61.1,-0.9028447
61.15,-0.9791903
61.2,-1.045438
61.25,-1.075191
61.3,-1.052799
61.35,-0.9969214
61.4,-0.9338505
61.45,-0.8485206
61.5,-0.7690028
61.55,-0.7806231
61.6,-0.8179198
61.65,-0.8456028
61.7,-0.8957602
61.75,-0.9461349
61.8,-0.9869122
61.85,-0.9991605
61.9,-0.9111481
61.95,-0.8799471
62,-0.880924
62.05,-0.9094875
62.1,-0.9821084
62.15,-1.05999
62.2,-1.135092
62.25,-1.139908
62.3,-1.080069
62.35,-1.046281
62.4,-1.061917
62.45,-1.070522
62.5,-1.051974
62.55,-1.047592
62.6,-1.070594
62.65,-1.070875
62.7,-1.083038
62.75,-1.149757
62.8,-1.188587
62.85,-1.20683
62.9,-1.112613
62.95,-1.011589
63,-0.9210071
63.05,-0.8794516
63.1,-0.9133555
63.15,-0.9545122
63.2,-1.024931
63.25,-1.101557
63.3,-1.138397
63.35,-1.143336
63.4,-1.129048
63.45,-1.105031
63.5,-1.077496
63.55,-1.048299
63.6,-1.04695
63.65,-1.066266
63.7,-1.080834
63.75,-1.118887
63.8,-1.104237
63.85,-1.100097
63.9,-1.126423
63.95,-1.161722
64,-1.157754
64.05,-1.143854
64.1,-1.107757
64.15,-1.070303
64.2,-1.011966
64.25,-0.9687655
64.3,-0.9215521
64.35,-0.8719325
64.4,-0.8644409
64.45,-0.9333712
64.5,-1.051015
64.55,-1.174411
64.6,-1.276402
64.65,-1.312379
64.7,-1.274307
64.75,-1.161522
64.8,-1.073554
64.85,-1.068625
64.9,-1.081697
64.95,-1.121545
65,-1.129723
65.05,-1.182846
65.1,-1.212057
65.15,-1.221839
65.2,-1.230078
65.25,-1.259592
65.3,-1.24912
65.35,-1.211747
65.4,-1.1962
65.45,-1.214816
65.5,-1.209709
65.55,-1.162677
65.6,-1.107767
65.65,-1.043227
65.7,-0.9900594
65.75,-0.9841859
65.8,-1.031138
65.85,-1.101599
65.9,-1.116427
65.95,-1.082812
66,-0.9930926
66.05,-0.9424109
66.1,-0.9126217
66.15,-0.9194778
66.2,-0.9522604
66.25,-1.025771
66.3,-1.11591
66.35,-1.215914
66.4,-1.267665
66.45,-1.275831
66.5,-1.229368
66.55,-1.171315
66.6,-1.172072
66.65,-1.194427
66.7,-1.191961
66.75,-1.183159
66.8,-1.146467
66.85,-1.106564
66.9,-1.094625
66.95,-1.130705
67,-1.167989
67.05,-1.148512
67.1,-1.040293
67.15,-0.9842567
67.2,-0.8818955
67.25,-0.7431224
67.3,-0.5863742
67.35,-0.5364832
67.4,-0.6070936
67.45,-0.7498978
67.5,-0.8871919
67.55,-0.9899809
67.6,-1.059875
67.65,-1.100654
67.7,-1.122116
67.75,-1.168877
67.8,-1.280009
67.85,-1.295287
67.9,-1.10781
67.95,-0.8590881
68,-0.7367619
68.05,-0.7890542
68.1,-0.9402462
68.15,-1.111408
68.2,-1.299099
68.25,-1.325155
68.3,-1.23068
68.35,-1.139628
68.4,-1.066658
68.45,-1.059434
68.5,-1.041246
68.55,-1.000576
68.6,-1.010006
68.65,-1.048761
68.7,-1.075531
68.75,-1.114701
68.8,-1.148043
68.85,-1.151877
68.9,-1.161455
68.95,-1.162891
69,-1.20279
69.05,-1.252631
69.1,-1.062862
69.15,-0.9697062
69.2,-0.9191269
69.25,-0.9477848
69.3,-1.028512
69.35,-1.159016
69.4,-1.269393
69.45,-1.357711
69.5,-1.363502
69.55,-1.37083
69.6,-1.337295
69.65,-1.25881
69.7,-1.194259
69.75,-1.159678
69.8,-1.154202
69.85,-1.148686
69.9,-1.132285
69.95,-1.104646
70,-1.091966
70.05,-1.108838
70.1,-1.121968
70.15,-1.134764
70.2,-1.13411
70.25,-1.128457
70.3,-1.157701
70.35,-1.204468
70.4,-1.231404
70.45,-1.275381
70.5,-1.286942
70.55,-1.311822
70.6,-1.345966
70.65,-1.370786
70.7,-1.373707
70.75,-1.348537
70.8,-1.310718
70.85,-1.299906
70.9,-1.336197
70.95,-1.371291
71,-1.369679
71.05,-1.276227
71.1,-1.206861
71.15,-1.116915
71.2,-1.091334
71.25,-1.125209
71.3,-1.245512
71.35,-1.309074
71.4,-1.302007
71.45,-1.253749
71.5,-1.215671
71.55,-1.169322
71.6,-1.169971
71.65,-1.220901
71.7,-1.296754
71.75,-1.273324
71.8,-1.156651
71.85,-1.064828
71.9,-1.03898
71.95,-1.113792
72,-1.237301
72.05,-1.410857
72.1,-1.48617
72.15,-1.48677
72.2,-1.408118
72.25,-1.35596
72.3,-1.300472
72.35,-1.271351
72.4,-1.258386
72.45,-1.246102
72.5,-1.210441
72.55,-1.248234
72.6,-1.304398
72.65,-1.3531
72.7,-1.382542
72.75,-1.400081
72.8,-1.398446
72.85,-1.361481
72.9,-1.322693
72.95,-1.331868
73,-1.37983
73.05,-1.423507
73.1,-1.438673
73.15,-1.4362
73.2,-1.441309
73.25,-1.327133
73.3,-1.210193
73.35,-1.174093
73.4,-1.163657
73.45,-1.18478
73.5,-1.282213
73.55,-1.358026
73.6,-1.428037
73.65,-1.453389
73.7,-1.444506
73.75,-1.455421
73.8,-1.430276
73.85,-1.380449
73.9,-1.353873
73.95,-1.321413
74,-1.298125
74.05,-1.325511
74.1,-1.380764
74.15,-1.446623
74.2,-1.463548
74.25,-1.472939
74.3,-1.504312
74.35,-1.444518
74.4,-1.379917
74.45,-1.331997
74.5,-1.338513
74.55,-1.349672
74.6,-1.353158
74.65,-1.414659
74.7,-1.448058
74.75,-1.42394
74.8,-1.391654
74.85,-1.410644
74.9,-1.470197
74.95,-1.434013
75,-1.290082
75.05,-1.218866
75.1,-1.236092
75.15,-1.288772
75.2,-1.385743
75.25,-1.373957
75.3,-1.358992
75.35,-1.273902
75.4,-1.167067
75.45,-1.258486
75.5,-1.363442
75.55,-1.431488
75.6,-1.467182
75.65,-1.406334
75.7,-1.378839
75.75,-1.388211
75.8,-1.421534
75.85,-1.430726
75.9,-1.430393
75.95,-1.430962
76,-1.449774
76.05,-1.543826
76.1,-1.701373
76.15,-1.854465
76.2,-1.944461
76.25,-1.957256
76.3,-1.916623
76.35,-1.857237
76.4,-1.795654
76.45,-1.817626
76.5,-1.832264
76.55,-1.764688
76.6,-1.668534
76.65,-1.657016
76.7,-1.651535
76.75,-1.639102
76.8,-1.657367
76.85,-1.575655
76.9,-1.474929
76.95,-1.536452
77,-1.760643
77.05,-2.010097
77.1,-2.168881
77.15,-2.207321
77.2,-2.141418
77.25,-1.985108
77.3,-1.856908
77.35,-1.893371
77.4,-1.932849
77.45,-1.908144
77.5,-1.84935
77.55,-1.795449
77.6,-1.761342
77.65,-1.730399
77.7,-1.747603
77.75,-1.758641
77.8,-1.772321
77.85,-1.776412
77.9,-1.765137
77.95,-1.766136
78,-1.746483
78.05,-1.694336
78.1,-1.66092
78.15,-1.66298
78.2,-1.681316
78.25,-1.702118
78.3,-1.686431
78.35,-1.59344
78.4,-1.481685
78.45,-1.407932
78.5,-1.395767
78.55,-1.460379
78.6,-1.517934
78.65,-1.521598
78.7,-1.546215
78.75,-1.512346
78.8,-1.53773
78.85,-1.619317
78.9,-1.666703
78.95,-1.680791
79,-1.667599
79.05,-1.637137
79.1,-1.615491
79.15,-1.584907
79.2,-1.548197
79.25,-1.559765
79.3,-1.598608
79.35,-1.651278
79.4,-1.710823
79.45,-1.742444
79.5,-1.703454
79.55,-1.600624
79.6,-1.529803
79.65,-1.488362
79.7,-1.526961
79.75,-1.592003
79.8,-1.634342
79.85,-1.624729
79.9,-1.623128
79.95,-1.596354
80,-1.580259
80.05,-1.546677
80.1,-1.518919
80.15,-1.489027
80.2,-1.453637
80.25,-1.464267
80.3,-1.479767
80.35,-1.493129
80.4,-1.488382
80.45,-1.543846
80.5,-1.572567
80.55,-1.608322
80.6,-1.610032
80.65,-1.713307
80.7,-1.756471
80.75,-1.742283
80.8,-1.715835
80.85,-1.727706
80.9,-1.687595
80.95,-1.654443
81,-1.635771
81.05,-1.674998
81.1,-1.710831
81.15,-1.679662
81.2,-1.630435
81.25,-1.610804
81.3,-1.595989
81.35,-1.577504
81.4,-1.584706
81.45,-1.574152
81.5,-1.547138
81.55,-1.576914
81.6,-1.628877
81.65,-1.687012
81.7,-1.714367
81.75,-1.764049
81.8,-1.777127
81.85,-1.759021
81.9,-1.794043
81.95,-1.87449
82,-1.908913
82.05,-1.888016
82.1,-1.843136
82.15,-1.807407
82.2,-1.783607
82.25,-1.777522
82.3,-1.811595
82.35,-1.868908
82.4,-1.906119
82.45,-1.916714
82.5,-1.906434
82.55,-1.871022
82.6,-1.821036
82.65,-1.816592
82.7,-1.753053
82.75,-1.77614
82.8,-1.798861
82.85,-1.801823
82.9,-1.745973
82.95,-1.674384
83,-1.643726
83.05,-1.695694
83.1,-1.748722
83.15,-1.830457
83.2,-1.909384
83.25,-1.854356
83.3,-1.709809
83.35,-1.671434
83.4,-1.763728
83.45,-1.88054
83.5,-2.022876
83.55,-2.124462
83.6,-2.182734
83.65,-2.121089
83.7,-1.958245
83.75,-1.903514
83.8,-1.884749
83.85,-1.816034
83.9,-1.775861
83.95,-1.763351
84,-1.749599
84.05,-1.745179
84.1,-1.722549
84.15,-1.712994
84.2,-1.752924
84.25,-1.652071
84.3,-1.465407
84.35,-1.401413
84.4,-1.455402
84.45,-1.579757
84.5,-1.735014
84.55,-1.827737
84.6,-1.768444
84.65,-1.669679
84.7,-1.54605
84.75,-1.63498
84.8,-1.786675
84.85,-1.901462
84.9,-1.965952
84.95,-1.958854
85,-1.909125
85.05,-1.905549
85.1,-1.859932
85.15,-1.814255
85.2,-1.814911
85.25,-1.811869
85.3,-1.80901
85.35,-1.813
85.4,-1.806203
85.45,-1.788098
85.5,-1.751743
85.55,-1.730812
85.6,-1.772925
85.65,-1.802744
85.7,-1.767442
85.75,-1.733309
85.8,-1.712539
85.85,-1.767605
85.9,-1.822299
85.95,-1.859808
86,-1.920624
86.05,-1.955707
86.1,-1.995924
86.15,-2.050149
86.2,-2.081666
86.25,-2.086164
86.3,-2.036619
86.35,-1.991077
86.4,-1.978726
86.45,-1.991894
86.5,-2.013945
86.55,-1.984717
86.6,-1.928024
86.65,-1.884414
86.7,-1.862335
86.75,-1.813932
86.8,-1.813665
86.85,-1.810801
86.9,-1.816336
86.95,-1.797398
87,-1.728534
87.05,-1.692165
87.1,-1.715898
87.15,-1.720536
87.2,-1.751259
87.25,-1.798576
87.3,-1.849807
87.35,-1.874449
87.4,-1.868389
87.45,-1.896802
87.5,-1.955536
87.55,-1.975716
87.6,-1.976299
87.65,-1.970777
87.7,-1.936548
87.75,-1.958828
87.8,-1.983407
87.85,-2.002476
87.9,-2.018097
87.95,-1.989067
88,-1.955622
88.05,-1.92605
88.1,-1.890885
88.15,-1.920822
88.2,-1.977712
88.25,-2.013458
88.3,-2.021238
88.35,-1.991991
88.4,-1.934952
88.45,-1.883391
88.5,-1.837959
88.55,-1.832874
88.6,-1.897075
88.65,-1.957343
88.7,-1.985803
88.75,-1.967519
88.8,-1.858586
88.85,-1.784707
88.9,-1.75398
88.95,-1.792863
89,-1.897771
89.05,-1.947557
89.1,-2.004313
89.15,-1.86771
89.2,-1.712132
89.25,-1.656577
89.3,-1.687038
89.35,-1.800425
89.4,-1.922184
89.45,-1.994125
89.5,-2.028256
89.55,-2.009107
89.6,-1.956645
89.65,-1.936955
89.7,-1.933394
89.75,-1.914944
89.8,-1.869262
89.85,-1.868082
89.9,-1.874864
89.95,-1.90407
90,-1.94081
90.05,-1.979531
90.1,-1.974484
90.15,-1.959905
90.2,-1.996028
90.25,-2.010505
90.3,-2.02806
90.35,-2.046025
90.4,-2.043366
90.45,-2.009651
90.5,-1.986974
90.55,-1.998084
90.6,-2.040012
90.65,-2.084763
90.7,-2.108956
90.75,-2.114334
90.8,-2.065268
90.85,-2.024036
90.9,-2.019311
90.95,-2.028107
91,-2.016785
91.05,-2.038247
91.1,-1.952398
91.15,-1.887683
91.2,-1.821762
91.25,-1.823795
91.3,-1.862401
91.35,-1.913183
91.4,-1.988214
91.45,-2.043323
91.5,-2.050408
91.55,-2.039268
91.6,-2.02607
91.65,-2.033679
91.7,-2.073717
91.75,-2.124235
91.8,-2.174323
91.85,-2.177086
91.9,-2.129529
91.95,-2.095936
92,-2.058748
92.05,-1.99777
92.1,-1.979518
92.15,-2.030138
92.2,-2.100391
92.25,-2.105464
92.3,-2.118556
92.35,-2.14572
92.4,-2.135767
92.45,-2.121609
92.5,-2.093458
92.55,-2.068822
92.6,-2.048465
92.65,-2.006248
92.7,-1.961887
92.75,-1.955669
92.8,-1.991738
92.85,-2.03675
92.9,-2.031559
92.95,-2.011549
93,-2.034619
93.05,-2.063823
93.1,-2.086371
93.15,-2.117057
93.2,-2.201832
93.25,-2.298332
93.3,-2.315382
93.35,-2.311155
93.4,-2.291329
93.45,-2.217307
93.5,-2.157846
93.55,-2.143052
93.6,-2.158417
93.65,-2.150503
93.7,-2.109006
93.75,-2.095906
93.8,-2.099
93.85,-2.068031
93.9,-2.071359
93.95,-2.116939
94,-2.1452
94.05,-2.139226
94.1,-2.119893
94.15,-2.118768
94.2,-2.102764
94.25,-2.021049
94.3,-2.034018
94.35,-2.099448
94.4,-2.136547
94.45,-2.174622
94.5,-2.176906
94.55,-2.203953
94.6,-2.215142
94.65,-2.228791
94.7,-2.259076
94.75,-2.268806
94.8,-2.240038
94.85,-2.189608
94.9,-2.142049
94.95,-2.131162
95,-2.161037
95.05,-2.141501
95.1,-2.136556
95.15,-2.121462
95.2,-2.1004
95.25,-2.063217
95.3,-2.061519
95.35,-2.085312
95.4,-2.153867
95.45,-2.170482
95.5,-2.153579
95.55,-2.158015
95.6,-2.153608
95.65,-2.143021
95.7,-2.164563
95.75,-2.222245
95.8,-2.298676
95.85,-2.326214
95.9,-2.310448
95.95,-2.349879
96,-2.399435
96.05,-2.417748
96.1,-2.400311
96.15,-2.344192
96.2,-2.269542
96.25,-2.21145
96.3,-2.213986
96.35,-2.270214
96.4,-2.304892
96.45,-2.341841
96.5,-2.316629
96.55,-2.198962
96.6,-2.057981
96.65,-1.904732
96.7,-1.758783
96.75,-1.623291
96.8,-1.546997
96.85,-1.554867
96.9,-1.533911
96.95,-1.442814
97,-1.396008
97.05,-1.416207
97.1,-1.538438
97.15,-1.731244
97.2,-1.893564
97.25,-2.062346
97.3,-2.199369
97.35,-2.175225
97.4,-2.165389
97.45,-2.098475
97.5,-2.0969
97.55,-2.102098
97.6,-2.109216
97.65,-2.185593
97.7,-2.263421
97.75,-2.27536
97.8,-2.232497
97.85,-2.194716
97.9,-2.191835
97.95,-2.163593
98,-2.120993
98.05,-2.141171
98.1,-2.139986
98.15,-2.12482
98.2,-2.106801
98.25,-2.160327
98.3,-2.20286
98.35,-2.159016
98.4,-2.158849
98.45,-2.240584
98.5,-2.229677
98.55,-2.196241
98.6,-2.187094
98.65,-2.223757
98.7,-2.27074
98.75,-2.331811
98.8,-2.374974
98.85,-2.422756
98.9,-2.433173
98.95,-2.409676
99,-2.421473
99.05,-2.443821
99.1,-2.44176
99.15,-2.422304
99.2,-2.35138
99.25,-2.332053
99.3,-2.353306
99.35,-2.307927
99.4,-2.259962
99.45,-2.203479
99.5,-2.162223
99.55,-2.150908
99.6,-2.128227
99.65,-2.164534
99.7,-2.185046
99.75,-2.196284
99.8,-2.216664
99.85,-2.240427
99.9,-2.27355
99.95,-2.31488
100,-2.333713
100.05,-2.3343
100.1,-2.350846
100.15,-2.37875
100.2,-2.410822
100.25,-2.440287
100.3,-2.492611
100.35,-2.537334
100.4,-2.545957
100.45,-2.472796
100.5,-2.465249
100.55,-2.482089
100.6,-2.324269
100.65,-2.190049
100.7,-2.161772
100.75,-2.160171
100.8,-2.151303
100.85,-2.135926
100.9,-2.165077
100.95,-2.07622
101,-1.841927
101.05,-1.635772
101.1,-1.546923
101.15,-1.554039
101.2,-1.632997
101.25,-1.788722
101.3,-1.957461
101.35,-2.076837
101.4,-2.155678
101.45,-2.25201
101.5,-2.244762
101.55,-2.248256
101.6,-2.315184
101.65,-2.40895
101.7,-2.468831
101.75,-2.559748
101.8,-2.615777
101.85,-2.599014
101.9,-2.569763
101.95,-2.59531
102,-2.654096
102.05,-2.678979
102.1,-2.672915
102.15,-2.603806
102.2,-2.442522
102.25,-2.32211
102.3,-2.266678
102.35,-2.231777
102.4,-2.271605
102.45,-2.331486
102.5,-2.379503
102.55,-2.437669
102.6,-2.364691
102.65,-2.39352
102.7,-2.363292
102.75,-2.370401
102.8,-2.3976
102.85,-2.45965
102.9,-2.544902
102.95,-2.618396
103,-2.642916
103.05,-2.630791
103.1,-2.605292
103.15,-2.575572
103.2,-2.552176
103.25,-2.54593
103.3,-2.554107
103.35,-2.543064
103.4,-2.496157
103.45,-2.468384
103.5,-2.480771
103.55,-2.490098
103.6,-2.514642
103.65,-2.50838
103.7,-2.486926
103.75,-2.452703
103.8,-2.479704
103.85,-2.470894
103.9,-2.457597
103.95,-2.444481
104,-2.466072
104.05,-2.474797
104.1,-2.486369
104.15,-2.521295
104.2,-2.555209
104.25,-2.55116
104.3,-2.531122
104.35,-2.548754
104.4,-2.490537
104.45,-2.436489
104.5,-2.443495
104.55,-2.51889
104.6,-2.571477
104.65,-2.602141
104.7,-2.604217
104.75,-2.622126
104.8,-2.543409
104.85,-2.517075
104.9,-2.507266
104.95,-2.543299
105,-2.552242
105.05,-2.566656
105.1,-2.605811
105.15,-2.605596
105.2,-2.535792
105.25,-2.432045
105.3,-2.3461
105.35,-2.321831
105.4,-2.338366
105.45,-2.351074
105.5,-2.442677
105.55,-2.479808
105.6,-2.412949
105.65,-2.432715
105.7,-2.476042
105.75,-2.534088
105.8,-2.627194
105.85,-2.700946
105.9,-2.751559
105.95,-2.701095
106,-2.672851
106.05,-2.610601
106.1,-2.526029
106.15,-2.430185
106.2,-2.39318
106.25,-2.399495
106.3,-2.395362
106.35,-2.421926
106.4,-2.509793
106.45,-2.623997
106.5,-2.664418
106.55,-2.636182
106.6,-2.534998
106.65,-2.463821
106.7,-2.430981
106.75,-2.312286
106.8,-2.310137
106.85,-2.270703
106.9,-2.14737
106.95,-2.058491
107,-2.063177
107.05,-2.162131
107.1,-2.325431
107.15,-2.468227
107.2,-2.595205
107.25,-2.658151
107.3,-2.676233
107.35,-2.705787
107.4,-2.73055
107.45,-2.752436
107.5,-2.736725
107.55,-2.688718
107.6,-2.699015
107.65,-2.727894
107.7,-2.631897
107.75,-2.493782
107.8,-2.297264
107.85,-2.079834
107.9,-1.94741
107.95,-1.997371
108,-2.144004
108.05,-2.340679
108.1,-2.439121
108.15,-2.44142
108.2,-2.337852
108.25,-2.180773
108.3,-2.061089
108.35,-2.046466
108.4,-2.113547
108.45,-2.213571
108.5,-2.324715
108.55,-2.373637
108.6,-2.368857
108.65,-2.211412
108.7,-2.094401
108.75,-2.088307
108.8,-2.198161
108.85,-2.280145
108.9,-2.48818
108.95,-2.566028
109,-2.558175
109.05,-2.353046
109.1,-2.178662
109.15,-2.067981
109.2,-2.049263
109.25,-2.076044
109.3,-2.192125
109.35,-2.288444
109.4,-2.271904
109.45,-2.13764
109.5,-1.982322
109.55,-1.957821
109.6,-1.83586
109.65,-1.616354
109.7,-1.657643
109.75,-1.993638
109.8,-2.381218
109.85,-2.551646
109.9,-2.707619
109.95,-2.851149
110,-2.665223
110.05,-2.543744
110.1,-2.542522
110.15,-2.588127
110.2,-2.574422
110.25,-2.511507
110.3,-2.498948
110.35,-2.562989
110.4,-2.662345
110.45,-2.727428
110.5,-2.655929
110.55,-2.444674
110.6,-2.207826
110.65,-1.997628
110.7,-1.919295
110.75,-1.932392
110.8,-1.993344
110.85,-2.18732
110.9,-2.40056
110.95,-2.528978
111,-2.540128
111.05,-2.599061
111.1,-2.681015
111.15,-2.612466
111.2,-2.518315
111.25,-2.576975
111.3,-2.688538
111.35,-2.791606
111.4,-2.907215
111.45,-3.050857
111.5,-3.165478
111.55,-3.178997
111.6,-3.136908
111.65,-3.103965
111.7,-3.04269
111.75,-3.034425
111.8,-3.044522
111.85,-2.693091
111.9,-2.257255
111.95,-1.968715
112,-1.032261
112.05,0.1311154
112.1,1.112713
112.15,2.802848
112.2,5.098171
112.25,7.705763
112.3,11.32587
112.35,16.57397
112.4,24.43971
112.45,33.5116
112.5,42.39475
112.55,51.89682
112.6,60.69329
112.65,66.48341
112.7,72.03853
112.75,80.41479
112.8,91.05992
112.85,102.662
112.9,110.7741
112.95,113.5455
113,113.8859
113.05,110.651
113.1,104.4256
113.15,98.44408
113.2,93.95811
113.25,89.25422
113.3,82.64156
113.35,74.79635
113.4,68.39919
113.45,62.46679
113.5,55.32082
113.55,48.92781
113.6,43.43433
113.65,36.92109
113.7,30.35236
113.75,24.89435
113.8,21.12382
113.85,19.1425
113.9,17.32293
113.95,15.47372
114,12.99811
114.05,9.843294
114.1,8.269442
114.15,7.009689
114.2,6.625011
114.25,7.191645
114.3,7.388489
114.35,7.177632
114.4,6.431453
114.45,5.551945
114.5,4.850856
114.55,4.159667
114.6,3.68862
114.65,3.588235
114.7,3.609425
114.75,3.77998
114.8,3.992355
114.85,3.881607
114.9,3.699768
114.95,3.18961
115,2.574956
115.05,2.508645
115.1,2.954383
115.15,3.002196
115.2,2.733468
115.25,2.199584
115.3,1.546093
115.35,1.173489
115.4,1.294255
115.45,1.68599
115.5,2.024761
115.55,1.689046
115.6,1.091506
115.65,0.8520512
115.7,0.9418631
115.75,1.188372
115.8,1.33005
115.85,1.2226
115.9,1.104282
115.95,0.6680257
116,-4.90867E-03
116.05,-0.1293916
116.1,-0.28537
116.15,-0.4107155
116.2,-0.3986916
116.25,-0.2839076
116.3,-6.356537E-03
116.35,7.535005E-02
116.4,-0.1064897
116.45,-0.2976605
116.5,-0.7171569
116.55,-1.241532
116.6,-1.701677
116.65,-1.939175
116.7,-1.923448
116.75,-1.877371
116.8,-1.884949
116.85,-1.772416
116.9,-1.668229
116.95,-1.909815
117,-2.254074
117.05,-2.515938
117.1,-2.683724
117.15,-2.78505
117.2,-2.408099
117.25,-1.840867
117.3,-1.687831
117.35,-1.798345
117.4,-2.06481
117.45,-2.032138
117.5,-1.925328
117.55,-1.864655
117.6,-1.698945
117.65,-1.705513
117.7,-1.980723
117.75,-2.293213
117.8,-2.584736
117.85,-2.786786
117.9,-2.833189
117.95,-2.930642
118,-2.879811
118.05,-2.803559
118.1,-2.854493
118.15,-3.021965
118.2,-3.105313
118.25,-3.11376
118.3,-2.86116
118.35,-2.436969
118.4,-2.125034
118.45,-1.913449
118.5,-1.900946
118.55,-2.132233
118.6,-2.4252
118.65,-2.631997
118.7,-2.711818
118.75,-2.692606
118.8,-2.680594
118.85,-2.733519
118.9,-2.881783
118.95,-3.054863
119,-2.961425
119.05,-2.72453
119.1,-2.503377
119.15,-2.472107
119.2,-2.126995
119.25,-2.041596
119.3,-2.314612
119.35,-2.349261
119.4,-2.168773
119.45,-2.185308
119.5,-2.310538
119.55,-2.490214
119.6,-2.508283
119.65,-2.666111
119.7,-2.83286
119.75,-2.821281
119.8,-2.716209
119.85,-2.669006
119.9,-2.726624
119.95,-2.84981
120,-2.921363
120.05,-2.823969
120.1,-2.713526
120.15,-2.573362
120.2,-2.49351
120.25,-2.507428
120.3,-2.3985
120.35,-2.404326
120.4,-2.547073
120.45,-2.563542
120.5,-2.67589
120.55,-2.859678
120.6,-3.039895
120.65,-3.15604
120.7,-3.155662
120.75,-3.200988
120.8,-3.278011
120.85,-3.282994
120.9,-3.296272
120.95,-3.345915
121,-3.344114
121.05,-3.332517
121.1,-3.33969
121.15,-3.369882
121.2,-3.355931
121.25,-3.109277
121.3,-2.910817
121.35,-2.868724
121.4,-2.729445
121.45,-2.41541
121.5,-2.207641
121.55,-2.251151
121.6,-2.474136
121.65,-2.686292
121.7,-3.002281
121.75,-3.032029
121.8,-2.812186
121.85,-2.585988
121.9,-2.535744
121.95,-2.650042
122,-2.770523
122.05,-2.78944
122.1,-2.630363
122.15,-2.359566
122.2,-2.238854
122.25,-2.510932
122.3,-2.787689
122.35,-2.587475
122.4,-2.455928
122.45,-2.470203
122.5,-2.602296
122.55,-2.830363
122.6,-3.1552
122.65,-3.439878
122.7,-3.509149
122.75,-3.238247
122.8,-3.087398
122.85,-3.118346
122.9,-3.013898
122.95,-2.806361
123,-2.689159
123.05,-2.685156
123.1,-2.720865
123.15,-2.68145
123.2,-2.660838
123.25,-2.798939
123.3,-2.932217
123.35,-2.963366
123.4,-3.228209
123.45,-3.362265
123.5,-3.39364
123.55,-3.340186
123.6,-3.302848
123.65,-3.3084
123.7,-3.310516
123.75,-3.328355
123.8,-3.374496
123.85,-3.405528
123.9,-3.372091
123.95,-3.327556
124,-3.279819
124.05,-3.218544
124.1,-3.201348
124.15,-3.236958
124.2,-3.271778
124.25,-3.296585
124.3,-3.346612
124.35,-3.365054
124.4,-3.247948
124.45,-2.906512
124.5,-2.79981
124.55,-2.808671
124.6,-2.904996
124.65,-3.131297
124.7,-3.363663
124.75,-3.467246
124.8,-3.398391
124.85,-3.297328
124.9,-3.287592
124.95,-3.324784
125,-3.416215
125.05,-3.450522
125.1,-3.334913
125.15,-3.195452
125.2,-3.141095
125.25,-3.196091
125.3,-3.323085
125.35,-3.418125
125.4,-3.553493
125.45,-3.572321
125.5,-3.325043
125.55,-3.229549
125.6,-3.233301
125.65,-3.248667
125.7,-3.257619
125.75,-3.038502
125.8,-2.888975
125.85,-2.828113
125.9,-2.836198
125.95,-2.972506
126,-3.168619
126.05,-3.33753
126.1,-3.392078
126.15,-3.297977
126.2,-3.172047
126.25,-3.093836
126.3,-2.970491
126.35,-2.822392
126.4,-2.843974
126.45,-2.976572
126.5,-3.146307
126.55,-3.287673
126.6,-3.470563
126.65,-3.495276
126.7,-3.405815
126.75,-3.339642
126.8,-3.239373
126.85,-3.167028
126.9,-3.180476
126.95,-3.243136
127,-3.351223
127.05,-3.453695
127.1,-3.527683
127.15,-3.556572
127.2,-3.503153
127.25,-3.446082
127.3,-3.388545
127.35,-3.141795
127.4,-2.898243
127.45,-2.764835
127.5,-2.624605
127.55,-2.639537
127.6,-2.798171
127.65,-3.054129
127.7,-3.280046
127.75,-3.326984
127.8,-3.42427
127.85,-3.390179
127.9,-3.228306
127.95,-3.170515
128,-3.212001
128.05,-3.239146
128.1,-3.285319
128.15,-3.344218
128.2,-3.416965
128.25,-3.491058
128.3,-3.536141
128.35,-3.619502
128.4,-3.695261
128.45,-3.66268
128.5,-3.595546
128.55,-3.59968
128.6,-3.55226
128.65,-3.572943
128.7,-3.433408
128.75,-3.287228
128.8,-3.212754
128.85,-3.142756
128.9,-3.181885
128.95,-3.22555
129,-3.18809
129.05,-3.198953
129.1,-3.242218
129.15,-3.313218
129.2,-3.415841
129.25,-3.48164
129.3,-3.502957
129.35,-3.521798
129.4,-3.530457
129.45,-3.583692
129.5,-3.677392
129.55,-3.612925
129.6,-3.462629
129.65,-3.344838
129.7,-3.258798
129.75,-3.345439
129.8,-3.527824
129.85,-3.628697
129.9,-3.54767
129.95,-3.301591
130,-2.990785
130.05,-2.836746
130.1,-2.904092
130.15,-3.150145
130.2,-3.425822
130.25,-3.575232
130.3,-3.588637
130.35,-3.537825
130.4,-3.47315
130.45,-3.457014
130.5,-3.493701
130.55,-3.49135
130.6,-3.511513
130.65,-3.497347
130.7,-3.470214
130.75,-3.490899
130.8,-3.527479
130.85,-3.568223
130.9,-3.618843
130.95,-3.673186
131,-3.729065
131.05,-3.691975
131.1,-3.666144
131.15,-3.627975
131.2,-3.590173
131.25,-3.59482
131.3,-3.632118
131.35,-3.651295
131.4,-3.638655
131.45,-3.613775
131.5,-3.582891
131.55,-3.564365
131.6,-3.533192
131.65,-3.546617
131.7,-3.534521
131.75,-3.51928
131.8,-3.474706
131.85,-3.450525
131.9,-3.46352
131.95,-3.510323
132,-3.557137
132.05,-3.609038
132.1,-3.649601
132.15,-3.667632
132.2,-3.59614
132.25,-3.497264
132.3,-3.418279
132.35,-3.379866
132.4,-3.408765
132.45,-3.50763
132.5,-3.6213
132.55,-3.66071
132.6,-3.640051
132.65,-3.619792
132.7,-3.619112
132.75,-3.638546
132.8,-3.683323
132.85,-3.739347
132.9,-3.737293
132.95,-3.664895
133,-3.575129
133.05,-3.519114
133.1,-3.506568
133.15,-3.510392
133.2,-3.549445
133.25,-3.58996
133.3,-3.596769
133.35,-3.590948
133.4,-3.56791
133.45,-3.532846
133.5,-3.526678
133.55,-3.53474
133.6,-3.529492
133.65,-3.546564
133.7,-3.595973
133.75,-3.710239
133.8,-3.697772
133.85,-3.662213
133.9,-3.670639
133.95,-3.661256
134,-3.618836
134.05,-3.672991
134.1,-3.586738
134.15,-3.513972
134.2,-3.416443
134.25,-3.402834
134.3,-3.460617
134.35,-3.505634
134.4,-3.539302
134.45,-3.607431
134.5,-3.617068
134.55,-3.52972
134.6,-3.461081
134.65,-3.375214
134.7,-3.213168
134.75,-2.941916
134.8,-2.717386
134.85,-2.743669
134.9,-3.01471
134.95,-3.27274
135,-3.606939
135.05,-3.897995
135.1,-3.986175
135.15,-3.912058
135.2,-3.882902
135.25,-3.837022
135.3,-3.778447
135.35,-3.748735
135.4,-3.78757
135.45,-3.815032
135.5,-3.700577
135.55,-3.512604
135.6,-3.422729
135.65,-3.455202
135.7,-3.578082
135.75,-3.76702
135.8,-3.932858
135.85,-3.94101
135.9,-3.838252
135.95,-3.705517
136,-3.703025
136.05,-3.703159
136.1,-3.731063
136.15,-3.714116
136.2,-3.75678
136.25,-3.788689
136.3,-3.806501
136.35,-3.797245
136.4,-3.79086
136.45,-3.778622
136.5,-3.77742
136.55,-3.798972
136.6,-3.827046
136.65,-3.8238
136.7,-3.773201
136.75,-3.70838
136.8,-3.579206
136.85,-3.512582
136.9,-3.555374
136.95,-3.491333
137,-3.470636
137.05,-3.460224
137.1,-3.536341
137.15,-3.619154
137.2,-3.597341
137.25,-3.637859
137.3,-3.699972
137.35,-3.676157
137.4,-3.671996
137.45,-3.66978
137.5,-3.677953
137.55,-3.705427
137.6,-3.728161
137.65,-3.763322
137.7,-3.827938
137.75,-3.867867
137.8,-3.841112
137.85,-3.80615
137.9,-3.790784
137.95,-3.830091
138,-3.831639
 
Alignment,On
