Data File Name,2100 expert_High Sensitivity DNA Assay_DE54700632_2019-09-05_14-26-31_manual_integration.xad
Data File Path,E:\201905_exports
Date Created,"Thursday, September 05, 2019 9:26:30 PM"
Date Last Modified,"Tuesday, November 03, 2020 12:54:25 AM"
Version Created,B.02.08.SI648
Version Last Modified,B.02.08.SI648
 
Assay Name,High Sensitivity DNA
Assay Path,C:\Program Files\Agilent\2100 bioanalyzer\2100 expert\assays\dsDNA
Assay Title,High Sensitivity DNA Assay
Assay Version,1.03
 
Number of Samples Run,11
 
Sample Name,sample 9
Number of Events,2121
 
Time,Value
32,5.005646E-02
32.05,5.005646E-02
32.1,5.005646E-02
32.15,5.005646E-02
32.2,5.005646E-02
32.25,5.005646E-02
32.3,5.005646E-02
32.35,5.005646E-02
32.4,5.005646E-02
32.45,5.005646E-02
32.5,5.005646E-02
32.55,5.005646E-02
32.6,2.239869E-03
32.65,-3.046803E-02
32.7,-9.969374E-02
32.75,-0.2138901
32.8,-0.2682717
32.85,-0.2357006
32.9,-0.1630708
32.95,-4.096002E-02
33,7.147019E-02
33.05,0.1567587
33.1,0.1871906
33.15,0.138022
33.2,6.444965E-02
33.25,5.227846E-02
33.3,0.111908
33.35,0.1490657
33.4,0.1741869
33.45,0.1106901
33.5,3.541033E-02
33.55,-8.942074E-02
33.6,-0.1095425
33.65,-0.0894696
33.7,2.991634E-03
33.75,2.777418E-02
33.8,-1.729581E-02
33.85,-0.119619
33.9,-0.2088659
33.95,-0.2867248
34,-0.2811031
34.05,-0.2672814
34.1,-0.210003
34.15,-0.1354731
34.2,-9.983993E-02
34.25,-5.861369E-02
34.3,-3.001172E-02
34.35,-3.737353E-02
34.4,-5.894318E-02
34.45,-0.1001238
34.5,-0.1372553
34.55,-0.1067679
34.6,-6.430283E-02
34.65,-1.108151E-02
34.7,-8.222358E-03
34.75,-3.189589E-03
34.8,1.293861E-02
34.85,4.424989E-02
34.9,7.436367E-02
34.95,2.867299E-02
35,-3.214515E-02
35.05,-0.1065406
35.1,-0.1926422
35.15,-0.2207138
35.2,-0.183754
35.25,-0.1332369
35.3,-0.1176153
35.35,-0.1495352
35.4,-0.1602593
35.45,-0.1350887
35.5,-0.1104696
35.55,-0.110051
35.6,-0.115118
35.65,-9.512046E-02
35.7,-3.674565E-02
35.75,-3.157887E-02
35.8,2.693298E-02
35.85,8.091615E-03
35.9,-0.0265519
35.95,-5.856212E-02
36,-7.233723E-02
36.05,-5.567212E-02
36.1,-2.775622E-02
36.15,-4.045426E-02
36.2,-8.339715E-02
36.25,-0.145659
36.3,-0.2106929
36.35,-0.2326077
36.4,-0.2213706
36.45,-0.212663
36.5,-0.2068654
36.55,-0.2143947
36.6,-0.2327504
36.65,-0.2398165
36.7,-0.2585945
36.75,-0.2947918
36.8,-0.3429853
36.85,-0.3266766
36.9,-0.3267105
36.95,-0.3551633
37,-0.3767497
37.05,-0.3586647
37.1,-0.3211468
37.15,-0.261615
37.2,-0.2071664
37.25,-0.1481852
37.3,-0.1335302
37.35,-0.1833508
37.4,-0.2091715
37.45,-0.1811742
37.5,-0.1330045
37.55,-9.020034E-02
37.6,2.328473E-03
37.65,7.202955E-02
37.7,0.1033466
37.75,0.0402346
37.8,-6.306907E-02
37.85,-0.1958087
37.9,-0.3264925
37.95,-0.3960357
38,-0.3709144
38.05,-0.3467664
38.1,-0.3443892
38.15,-0.312201
38.2,-0.2568803
38.25,-0.2402562
38.3,-0.2846924
38.35,-0.3589202
38.4,-0.4147701
38.45,-0.4018253
38.5,-0.290136
38.55,-0.1253831
38.6,-2.067075E-02
38.65,-1.092384E-02
38.7,-0.0979519
38.75,-0.1800874
38.8,-0.1653392
38.85,-0.1847345
38.9,-0.2069168
38.95,-0.2395993
39,-9.417111E-02
39.05,9.642342E-02
39.1,0.1711979
39.15,0.1785911
39.2,7.921056E-02
39.25,-9.433959E-02
39.3,-0.2551121
39.35,-0.3203304
39.4,-0.2836383
39.45,-0.2524132
39.5,-0.2893765
39.55,-0.3206292
39.6,-0.3305281
39.65,-0.3685036
39.7,-0.3686462
39.75,-0.4437733
39.8,-0.470977
39.85,-0.4946715
39.9,-0.4536912
39.95,-0.3836425
40,-0.3342625
40.05,-0.3363668
40.1,-0.2658944
40.15,-0.244671
40.2,-0.2494605
40.25,-0.2341185
40.3,-0.1969003
40.35,-0.1817536
40.4,-0.2117715
40.45,-0.2317905
40.5,-0.2217819
40.55,-0.2452466
40.6,-0.3091744
40.65,-0.3677746
40.7,-0.4090656
40.75,-0.4130486
40.8,-0.4417427
40.85,-0.3867013
40.9,-0.3291976
40.95,-0.337595
41,-0.3700645
41.05,-0.4798385
41.1,-0.3749853
41.15,-0.1823203
41.2,-0.1058107
41.25,-0.044003
41.3,-7.378454E-02
41.35,-0.1837387
41.4,-0.3247083
41.45,-0.4226993
41.5,-0.4195741
41.55,-0.3824682
41.6,-0.3726702
41.65,-0.3199289
41.7,-0.2324874
41.75,-0.2183089
41.8,-0.1689291
41.85,-0.2038966
41.9,-0.2005434
41.95,-0.2047694
42,-0.1606251
42.05,-0.1678783
42.1,-0.2349338
42.15,-0.2134648
42.2,-0.2007159
42.25,-0.2019798
42.3,-0.2446514
42.35,-0.3025311
42.4,-0.2518799
42.45,9.786155E-02
42.5,1.108872
42.55,3.25458
42.6,7.019471
42.65,13.01328
42.7,21.94401
42.75,34.04149
42.8,48.48689
42.85,63.9453
42.9,78.22536
42.95,89.0742
43,93.81796
43.05,91.35055
43.1,82.36561
43.15,68.73042
43.2,52.71605
43.25,37.20248
43.3,24.12028
43.35,14.39393
43.4,7.819613
43.45,3.916319
43.5,1.820449
43.55,0.7642969
43.6,0.260747
43.65,-1.310328E-02
43.7,-0.1483628
43.75,-0.2100624
43.8,-0.2417366
43.85,-0.2688707
43.9,-0.2270619
43.95,-0.2110182
44,-0.1780809
44.05,-0.2573039
44.1,-0.3128981
44.15,-0.3870547
44.2,-0.3199764
44.25,-0.2322731
44.3,-0.1357042
44.35,-0.1359364
44.4,-0.1984724
44.45,-0.2670271
44.5,-0.1903732
44.55,-1.261199E-02
44.6,0.1564986
44.65,0.2335185
44.7,0.1759767
44.75,7.154734E-02
44.8,6.068504E-03
44.85,2.183144E-02
44.9,0.0832653
44.95,0.1640375
45,0.126322
45.05,5.442377E-02
45.1,-2.498218E-03
45.15,-8.569036E-02
45.2,-0.1367804
45.25,-0.1920542
45.3,-0.2530101
45.35,-0.2824399
45.4,-0.3668455
45.45,-0.4207547
45.5,-0.481703
45.55,-0.4323647
45.6,-0.2725973
45.65,-0.1147152
45.7,1.855528E-03
45.75,4.068548E-02
45.8,-6.122846E-02
45.85,-0.2555205
45.9,-0.3590433
45.95,-0.3592974
46,-0.3092286
46.05,-0.3302553
46.1,-0.3793453
46.15,-0.4453234
46.2,-0.4282916
46.25,-0.4241068
46.3,-0.3289668
46.35,-0.2651967
46.4,-0.3158868
46.45,-0.4126034
46.5,-0.5197343
46.55,-0.5666722
46.6,-0.5364912
46.65,-0.5103138
46.7,-0.5272702
46.75,-0.554356
46.8,-0.5800384
46.85,-0.6122492
46.9,-0.6486696
46.95,-0.6915479
47,-0.6945553
47.05,-0.6759365
47.1,-0.6875219
47.15,-0.6420816
47.2,-0.5459766
47.25,-0.5353626
47.3,-0.513136
47.35,-0.5312552
47.4,-0.4956186
47.45,-0.428991
47.5,-0.3509558
47.55,-0.314523
47.6,-0.3130311
47.65,-0.349218
47.7,-0.4142005
47.75,-0.489817
47.8,-0.5248231
47.85,-0.5037674
47.9,-0.5111004
47.95,-0.5614372
48,-0.6020647
48.05,-0.6122456
48.1,-0.6527165
48.15,-0.6925583
48.2,-0.7139418
48.25,-0.7020866
48.3,-0.6788936
48.35,-0.6238878
48.4,-0.5574853
48.45,-0.5095989
48.5,-0.4931297
48.55,-0.5185608
48.6,-0.5568732
48.65,-0.578242
48.7,-0.5831372
48.75,-0.5787492
48.8,-0.6008224
48.85,-0.626874
48.9,-0.6062334
48.95,-0.5803931
49,-0.5758353
49.05,-0.5984975
49.1,-0.5664145
49.15,-0.5244547
49.2,-0.5352071
49.25,-0.4882632
49.3,-0.3713828
49.35,-0.441851
49.4,-0.6334138
49.45,-0.6306023
49.5,-0.5177258
49.55,-0.490495
49.6,-0.4948807
49.65,-0.4629571
49.7,-0.4779933
49.75,-0.5879415
49.8,-0.6985896
49.85,-0.7237027
49.9,-0.736897
49.95,-0.7891266
50,-0.7614632
50.05,-0.6323273
50.1,-0.5076898
50.15,-0.4525475
50.2,-0.4536405
50.25,-0.4671484
50.3,-0.486837
50.35,-0.5093922
50.4,-0.5678579
50.45,-0.5595246
50.5,-0.5349091
50.55,-0.5822669
50.6,-0.6407374
50.65,-0.5994697
50.7,-0.5602217
50.75,-0.5466774
50.8,-0.5434901
50.85,-0.5527261
50.9,-0.5559241
50.95,-0.5671049
51,-0.5930238
51.05,-0.5853074
51.1,-0.6058222
51.15,-0.7066411
51.2,-0.7410372
51.25,-0.7699304
51.3,-0.7597998
51.35,-0.6863589
51.4,-0.7073322
51.45,-0.6664402
51.5,-0.6363173
51.55,-0.6417094
51.6,-0.5829095
51.65,-0.5737951
51.7,-0.591817
51.75,-0.625854
51.8,-0.6087868
51.85,-0.5422409
51.9,-0.5033532
51.95,-0.5100875
52,-0.5348797
52.05,-0.5894831
52.1,-0.661296
52.15,-0.6767626
52.2,-0.6592755
52.25,-0.6695833
52.3,-0.7328163
52.35,-0.8131841
52.4,-0.8805084
52.45,-0.9266358
52.5,-0.8016319
52.55,-0.6880921
52.6,-0.5890784
52.65,-0.5917247
52.7,-0.6515335
52.75,-0.7369566
52.8,-0.8032098
52.85,-0.7678798
52.9,-0.6550496
52.95,-0.440974
53,-0.1530126
53.05,5.090794E-02
53.1,0.1107383
53.15,9.477301E-02
53.2,0.1487685
53.25,0.4830644
53.3,1.014426
53.35,1.477309
53.4,1.770746
53.45,1.670304
53.5,1.23844
53.55,0.6574744
53.6,0.1533129
53.65,-0.2511103
53.7,-0.5662395
53.75,-0.8563918
53.8,-1.04476
53.85,-1.111753
53.9,-1.142066
53.95,-1.142772
54,-1.127168
54.05,-1.153945
54.1,-1.180942
54.15,-1.167251
54.2,-1.17598
54.25,-1.145151
54.3,-1.066211
54.35,-0.982675
54.4,-0.9203352
54.45,-0.9339551
54.5,-0.9638398
54.55,-0.936627
54.6,-0.9717191
54.65,-1.008456
54.7,-1.031813
54.75,-1.063444
54.8,-1.092419
54.85,-1.076681
54.9,-0.965373
54.95,-0.8273521
55,-0.7748185
55.05,-0.8234555
55.1,-0.9287012
55.15,-1.034261
55.2,-1.081679
55.25,-1.043836
55.3,-0.9135772
55.35,-0.8007028
55.4,-0.7729934
55.45,-0.8590519
55.5,-0.9715074
55.55,-1.11212
55.6,-1.174804
55.65,-1.152968
55.7,-1.043719
55.75,-0.9276356
55.8,-0.8381454
55.85,-0.802224
55.9,-0.8014404
55.95,-0.8190533
56,-0.8190668
56.05,-0.7240533
56.1,-0.5897059
56.15,-0.5590404
56.2,-0.6413776
56.25,-0.7627319
56.3,-0.8957502
56.35,-0.9942479
56.4,-1.040839
56.45,-1.038236
56.5,-0.9609744
56.55,-0.9264636
56.6,-0.9867561
56.65,-0.9993953
56.7,-0.976564
56.75,-0.9106672
56.8,-0.931061
56.85,-0.9606922
56.9,-0.9698166
56.95,-0.991603
57,-1.047864
57.05,-1.0767
57.1,-1.076629
57.15,-1.061638
57.2,-1.040609
57.25,-1.031678
57.3,-1.010115
57.35,-0.9885983
57.4,-1.009585
57.45,-1.046355
57.5,-1.036153
57.55,-1.02728
57.6,-0.9868692
57.65,-0.9406655
57.7,-0.9033628
57.75,-0.8617561
57.8,-0.8814902
57.85,-0.8812301
57.9,-0.8761121
57.95,-0.919719
58,-0.9567299
58.05,-0.9422878
58.1,-0.953076
58.15,-0.9821984
58.2,-1.035469
58.25,-1.116246
58.3,-1.147794
58.35,-1.14157
58.4,-1.132999
58.45,-1.099431
58.5,-1.093915
58.55,-1.0288
58.6,-0.9450083
58.65,-0.9711243
58.7,-0.9515474
58.75,-0.9193669
58.8,-0.9504203
58.85,-0.9945613
58.9,-0.9813349
58.95,-0.8771347
59,-0.8385397
59.05,-0.8527121
59.1,-0.8972418
59.15,-0.9766008
59.2,-1.055089
59.25,-1.116488
59.3,-1.111199
59.35,-1.041904
59.4,-1.039358
59.45,-1.069809
59.5,-1.064524
59.55,-1.036375
59.6,-0.9971841
59.65,-0.9664738
59.7,-0.9525374
59.75,-0.9617846
59.8,-1.075013
59.85,-1.185879
59.9,-1.223368
59.95,-1.180471
60,-1.142269
60.05,-1.11402
60.1,-1.063464
60.15,-1.032891
60.2,-1.019933
60.25,-1.015708
60.3,-0.9896951
60.35,-0.928694
60.4,-0.9006245
60.45,-0.9175406
60.5,-0.9147323
60.55,-0.9115303
60.6,-0.9282001
60.65,-0.9464951
60.7,-0.9036623
60.75,-0.8280915
60.8,-0.8516347
60.85,-0.9383643
60.9,-0.9913681
60.95,-1.11339
61,-1.108048
61.05,-1.078376
61.1,-1.061414
61.15,-1.0462
61.2,-1.077782
61.25,-1.123447
61.3,-1.172695
61.35,-1.199693
61.4,-1.154661
61.45,-1.103475
61.5,-1.089288
61.55,-1.023796
61.6,-0.9695525
61.65,-0.9993157
61.7,-1.02317
61.75,-1.058212
61.8,-1.041872
61.85,-1.016562
61.9,-1.011887
61.95,-0.9406632
62,-0.9137734
62.05,-0.9515458
62.1,-1.026734
62.15,-1.088602
62.2,-1.115267
62.25,-1.115022
62.3,-1.112816
62.35,-1.080327
62.4,-1.045114
62.45,-1.058617
62.5,-1.101702
62.55,-1.150893
62.6,-1.155322
62.65,-1.177286
62.7,-1.189944
62.75,-1.150208
62.8,-1.142403
62.85,-1.067904
62.9,-1.051313
62.95,-1.041163
63,-1.031709
63.05,-1.059382
63.1,-1.061388
63.15,-1.091732
63.2,-1.104152
63.25,-1.054868
63.3,-1.046988
63.35,-1.093397
63.4,-1.117874
63.45,-1.109583
63.5,-1.10857
63.55,-1.129283
63.6,-1.135419
63.65,-1.119576
63.7,-1.195553
63.75,-1.237055
63.8,-1.235639
63.85,-1.221508
63.9,-1.294418
63.95,-1.341621
64,-1.336208
64.05,-1.327544
64.1,-1.351877
64.15,-1.261931
64.2,-1.161523
64.25,-1.08525
64.3,-1.059806
64.35,-1.020188
64.4,-0.9850149
64.45,-0.9796959
64.5,-0.9923946
64.55,-1.006734
64.6,-1.011074
64.65,-1.049338
64.7,-1.106011
64.75,-1.160066
64.8,-1.15992
64.85,-1.169349
64.9,-1.197304
64.95,-1.249558
65,-1.246466
65.05,-1.29844
65.1,-1.338066
65.15,-1.162635
65.2,-0.9845303
65.25,-0.9098784
65.3,-0.9155679
65.35,-0.9743967
65.4,-1.055204
65.45,-1.203186
65.5,-1.32679
65.55,-1.333062
65.6,-1.302048
65.65,-1.256122
65.7,-1.149763
65.75,-1.026918
65.8,-0.9620957
65.85,-0.9438675
65.9,-1.039891
65.95,-1.102862
66,-1.224038
66.05,-1.220073
66.1,-1.14773
66.15,-1.057182
66.2,-1.027523
66.25,-1.063138
66.3,-1.140918
66.35,-1.21453
66.4,-1.316057
66.45,-1.354177
66.5,-1.336345
66.55,-1.344936
66.6,-1.344435
66.65,-1.318141
66.7,-1.324992
66.75,-1.318753
66.8,-1.279202
66.85,-1.271285
66.9,-1.210834
66.95,-1.240688
67,-1.235677
67.05,-1.251921
67.1,-1.27962
67.15,-1.272742
67.2,-1.236348
67.25,-1.263395
67.3,-1.259789
67.35,-1.275565
67.4,-1.293546
67.45,-1.318603
67.5,-1.328448
67.55,-1.321118
67.6,-1.314543
67.65,-1.304272
67.7,-1.282923
67.75,-1.265689
67.8,-1.272325
67.85,-1.295148
67.9,-1.348207
67.95,-1.391781
68,-1.434945
68.05,-1.448032
68.1,-1.394485
68.15,-1.39021
68.2,-1.428133
68.25,-1.425121
68.3,-1.444685
68.35,-1.460871
68.4,-1.446759
68.45,-1.420058
68.5,-1.401703
68.55,-1.383061
68.6,-1.335781
68.65,-1.260011
68.7,-1.205148
68.75,-1.184154
68.8,-1.181185
68.85,-1.231365
68.9,-1.27673
68.95,-1.299183
69,-1.24046
69.05,-1.215308
69.1,-1.217147
69.15,-1.252134
69.2,-1.32513
69.25,-1.391029
69.3,-1.414684
69.35,-1.405861
69.4,-1.325419
69.45,-1.269677
69.5,-1.276451
69.55,-1.324799
69.6,-1.399089
69.65,-1.464416
69.7,-1.484336
69.75,-1.439981
69.8,-1.366575
69.85,-1.341075
69.9,-1.355522
69.95,-1.388247
70,-1.460988
70.05,-1.528196
70.1,-1.353905
70.15,-1.185692
70.2,-1.127089
70.25,-1.217641
70.3,-1.3069
70.35,-1.37567
70.4,-1.431136
70.45,-1.4372
70.5,-1.377927
70.55,-1.41172
70.6,-1.505569
70.65,-1.587376
70.7,-1.60648
70.75,-1.574103
70.8,-1.513529
70.85,-1.446201
70.9,-1.443607
70.95,-1.46691
71,-1.506144
71.05,-1.552125
71.1,-1.533255
71.15,-1.529555
71.2,-1.528054
71.25,-1.504865
71.3,-1.518399
71.35,-1.524593
71.4,-1.464745
71.45,-1.399752
71.5,-1.374354
71.55,-1.385306
71.6,-1.408129
71.65,-1.422085
71.7,-1.417345
71.75,-1.41069
71.8,-1.393937
71.85,-1.384568
71.9,-1.421453
71.95,-1.462303
72,-1.494794
72.05,-1.524303
72.1,-1.53671
72.15,-1.556604
72.2,-1.572486
72.25,-1.577486
72.3,-1.521613
72.35,-1.470485
72.4,-1.455305
72.45,-1.473733
72.5,-1.486945
72.55,-1.548102
72.6,-1.624219
72.65,-1.689823
72.7,-1.75872
72.75,-1.780937
72.8,-1.754266
72.85,-1.738873
72.9,-1.713989
72.95,-1.648686
73,-1.58998
73.05,-1.527413
73.1,-1.463065
73.15,-1.32471
73.2,-1.20531
73.25,-1.288691
73.3,-1.411472
73.35,-1.463776
73.4,-1.527138
73.45,-1.574073
73.5,-1.615673
73.55,-1.598698
73.6,-1.589614
73.65,-1.597543
73.7,-1.569763
73.75,-1.574904
73.8,-1.628363
73.85,-1.67125
73.9,-1.706453
73.95,-1.733628
74,-1.710717
74.05,-1.671502
74.1,-1.661014
74.15,-1.670805
74.2,-1.686348
74.25,-1.628478
74.3,-1.652901
74.35,-1.607482
74.4,-1.580259
74.45,-1.500667
74.5,-1.512389
74.55,-1.540686
74.6,-1.555267
74.65,-1.559066
74.7,-1.562644
74.75,-1.555077
74.8,-1.589922
74.85,-1.635175
74.9,-1.69447
74.95,-1.729517
75,-1.697396
75.05,-1.697815
75.1,-1.716106
75.15,-1.692204
75.2,-1.685687
75.25,-1.702492
75.3,-1.765688
75.35,-1.611055
75.4,-1.42348
75.45,-1.431689
75.5,-1.476038
75.55,-1.458303
75.6,-1.405184
75.65,-1.418197
75.7,-1.432466
75.75,-1.461991
75.8,-1.484903
75.85,-1.525313
75.9,-1.542805
75.95,-1.495389
76,-1.39857
76.05,-1.366715
76.1,-1.447586
76.15,-1.505787
76.2,-1.652722
76.25,-1.78389
76.3,-1.964658
76.35,-2.062666
76.4,-2.07061
76.45,-2.010896
76.5,-2.036248
76.55,-1.935354
76.6,-1.905154
76.65,-1.895284
76.7,-1.88455
76.75,-1.886247
76.8,-1.888123
76.85,-1.92084
76.9,-1.934541
76.95,-1.872193
77,-1.785684
77.05,-1.748353
77.1,-1.716503
77.15,-1.594646
77.2,-1.446723
77.25,-1.43212
77.3,-1.447769
77.35,-1.454719
77.4,-1.545036
77.45,-1.668378
77.5,-1.732104
77.55,-1.690471
77.6,-1.648834
77.65,-1.667988
77.7,-1.627419
77.75,-1.626772
77.8,-1.642633
77.85,-1.668338
77.9,-1.731863
77.95,-1.790029
78,-1.815223
78.05,-1.821312
78.1,-1.823876
78.15,-1.833871
78.2,-1.827257
78.25,-1.785288
78.3,-1.776575
78.35,-1.782581
78.4,-1.741893
78.45,-1.714661
78.5,-1.731603
78.55,-1.790695
78.6,-1.825032
78.65,-1.838181
78.7,-1.81815
78.75,-1.819591
78.8,-1.810296
78.85,-1.795001
78.9,-1.813162
78.95,-1.857486
79,-1.887785
79.05,-1.894688
79.1,-1.890498
79.15,-1.862939
79.2,-1.812289
79.25,-1.782751
79.3,-1.790065
79.35,-1.812324
79.4,-1.825947
79.45,-1.846413
79.5,-1.84043
79.55,-1.900774
79.6,-1.926553
79.65,-1.997157
79.7,-2.012635
79.75,-1.992302
79.8,-1.958333
79.85,-1.930286
79.9,-1.846624
79.95,-1.80465
80,-1.786919
80.05,-1.788388
80.1,-1.792069
80.15,-1.766002
80.2,-1.753062
80.25,-1.767271
80.3,-1.745968
80.35,-1.724877
80.4,-1.768505
80.45,-1.814462
80.5,-1.839778
80.55,-1.832128
80.6,-1.871581
80.65,-1.934319
80.7,-1.935171
80.75,-1.970449
80.8,-2.051712
80.85,-2.066965
80.9,-2.007251
80.95,-1.959317
81,-1.918958
81.05,-1.884332
81.1,-1.901332
81.15,-1.927705
81.2,-1.924526
81.25,-1.904186
81.3,-1.868187
81.35,-1.833692
81.4,-1.797872
81.45,-1.80013
81.5,-1.849957
81.55,-1.898406
81.6,-1.884135
81.65,-1.930405
81.7,-1.973572
81.75,-1.769943
81.8,-1.57758
81.85,-1.538116
81.9,-1.553115
81.95,-1.640409
82,-1.735042
82.05,-1.84434
82.1,-1.894469
82.15,-1.861223
82.2,-1.864274
82.25,-1.933177
82.3,-1.975355
82.35,-1.959048
82.4,-1.905679
82.45,-1.867198
82.5,-1.904085
82.55,-1.974729
82.6,-2.055936
82.65,-2.115657
82.7,-2.158986
82.75,-2.145575
82.8,-2.054613
82.85,-1.95428
82.9,-1.87575
82.95,-1.821893
83,-1.798727
83.05,-1.802436
83.1,-1.852512
83.15,-1.869133
83.2,-1.830603
83.25,-1.813136
83.3,-1.850157
83.35,-1.885882
83.4,-1.899061
83.45,-1.923846
83.5,-1.922377
83.55,-1.919847
83.6,-1.910332
83.65,-1.937891
83.7,-2.00412
83.75,-2.071011
83.8,-2.115332
83.85,-2.137779
83.9,-2.100595
83.95,-2.080628
84,-2.05646
84.05,-2.019912
84.1,-2.014512
84.15,-2.020285
84.2,-2.017642
84.25,-2.002304
84.3,-1.975668
84.35,-1.962111
84.4,-1.955915
84.45,-1.950746
84.5,-1.984122
84.55,-1.984649
84.6,-1.931793
84.65,-1.897231
84.7,-1.915452
84.75,-1.958012
84.8,-2.025167
84.85,-2.077434
84.9,-2.128834
84.95,-2.08238
85,-2.012414
85.05,-2.01514
85.1,-2.059158
85.15,-2.094723
85.2,-2.15321
85.25,-2.217033
85.3,-2.194531
85.35,-2.131285
85.4,-2.084598
85.45,-2.047554
85.5,-2.056184
85.55,-2.077892
85.6,-2.085958
85.65,-2.06687
85.7,-2.006991
85.75,-1.960311
85.8,-1.94409
85.85,-1.887252
85.9,-2.012476
85.95,-2.090257
86,-2.059517
86.05,-2.020119
86.1,-1.955804
86.15,-1.915462
86.2,-1.885378
86.25,-1.879968
86.3,-1.944303
86.35,-2.010073
86.4,-2.057096
86.45,-2.13637
86.5,-2.21293
86.55,-2.252678
86.6,-2.267021
86.65,-2.215398
86.7,-2.216496
86.75,-2.247498
86.8,-2.301932
86.85,-2.31198
86.9,-2.33357
86.95,-2.281027
87,-2.212818
87.05,-2.131785
87.1,-2.10545
87.15,-2.079727
87.2,-2.084805
87.25,-2.084796
87.3,-2.085647
87.35,-2.104678
87.4,-2.142165
87.45,-2.17005
87.5,-2.171291
87.55,-2.152344
87.6,-2.115009
87.65,-2.074722
87.7,-2.045154
87.75,-2.063119
87.8,-2.0921
87.85,-2.108047
87.9,-2.140265
87.95,-2.179146
88,-2.165216
88.05,-2.197217
88.1,-2.207297
88.15,-2.253708
88.2,-2.276805
88.25,-2.294667
88.3,-2.285029
88.35,-2.247012
88.4,-2.185568
88.45,-2.143092
88.5,-2.109133
88.55,-2.072148
88.6,-2.082182
88.65,-2.114388
88.7,-2.10131
88.75,-2.05741
88.8,-2.028499
88.85,-2.035092
88.9,-2.049714
88.95,-2.096282
89,-2.164254
89.05,-2.234027
89.1,-2.208874
89.15,-2.219272
89.2,-2.258015
89.25,-2.269554
89.3,-2.274768
89.35,-2.226204
89.4,-2.161859
89.45,-2.139407
89.5,-2.165409
89.55,-2.140172
89.6,-2.050936
89.65,-2.003952
89.7,-2.019567
89.75,-2.069601
89.8,-2.038867
89.85,-2.084221
89.9,-2.181566
89.95,-2.212384
90,-2.14492
90.05,-2.184672
90.1,-2.201378
90.15,-2.162965
90.2,-2.090604
90.25,-2.117476
90.3,-2.185809
90.35,-2.199661
90.4,-2.199383
90.45,-2.208103
90.5,-2.190511
90.55,-2.157111
90.6,-2.15502
90.65,-2.173414
90.7,-2.181234
90.75,-2.193235
90.8,-2.21332
90.85,-2.245639
90.9,-2.269337
90.95,-2.331761
91,-2.378372
91.05,-2.454281
91.1,-2.474205
91.15,-2.49699
91.2,-2.516798
91.25,-2.420958
91.3,-2.32687
91.35,-2.268799
91.4,-2.207868
91.45,-2.201104
91.5,-2.216949
91.55,-2.249105
91.6,-2.286329
91.65,-2.250391
91.7,-2.182945
91.75,-2.165774
91.8,-2.142596
91.85,-2.165098
91.9,-2.225718
91.95,-2.247781
92,-2.312074
92.05,-2.325893
92.1,-2.321288
92.15,-2.395258
92.2,-2.410844
92.25,-2.425283
92.3,-2.414472
92.35,-2.393721
92.4,-2.384167
92.45,-2.396489
92.5,-2.412504
92.55,-2.418475
92.6,-2.382027
92.65,-2.355358
92.7,-2.368294
92.75,-2.354385
92.8,-2.31322
92.85,-2.31889
92.9,-2.356056
92.95,-2.335635
93,-2.349793
93.05,-2.345459
93.1,-2.380528
93.15,-2.319665
93.2,-2.256565
93.25,-2.29189
93.3,-2.300712
93.35,-2.281865
93.4,-2.306965
93.45,-2.329278
93.5,-2.360042
93.55,-2.38817
93.6,-2.41892
93.65,-2.455044
93.7,-2.444282
93.75,-2.404275
93.8,-2.383717
93.85,-2.359037
93.9,-2.33988
93.95,-2.334153
94,-2.345631
94.05,-2.339463
94.1,-2.340717
94.15,-2.324565
94.2,-2.349636
94.25,-2.342832
94.3,-2.352564
94.35,-2.334191
94.4,-2.33444
94.45,-2.313141
94.5,-2.277568
94.55,-2.273426
94.6,-2.214918
94.65,-2.191417
94.7,-2.232926
94.75,-2.24326
94.8,-2.231545
94.85,-2.269545
94.9,-2.33714
94.95,-2.389338
95,-2.426739
95.05,-2.488468
95.1,-2.540469
95.15,-2.512779
95.2,-2.508991
95.25,-2.523548
95.3,-2.545605
95.35,-2.510646
95.4,-2.444318
95.45,-2.380915
95.5,-2.354344
95.55,-2.377655
95.6,-2.425771
95.65,-2.446411
95.7,-2.42007
95.75,-2.33718
95.8,-2.215265
95.85,-2.134046
95.9,-2.148558
95.95,-2.186699
96,-2.1819
96.05,-2.220063
96.1,-2.290507
96.15,-2.376832
96.2,-2.444488
96.25,-2.508003
96.3,-2.53287
96.35,-2.524807
96.4,-2.529715
96.45,-2.464308
96.5,-2.43195
96.55,-2.408372
96.6,-2.426227
96.65,-2.480695
96.7,-2.547423
96.75,-2.625051
96.8,-2.652256
96.85,-2.587027
96.9,-2.53265
96.95,-2.544422
97,-2.553272
97.05,-2.559076
97.1,-2.51093
97.15,-2.490364
97.2,-2.493665
97.25,-2.430507
97.3,-2.348192
97.35,-2.305743
97.4,-2.22596
97.45,-2.242023
97.5,-2.31971
97.55,-2.428853
97.6,-2.506987
97.65,-2.433794
97.7,-2.326913
97.75,-2.285021
97.8,-2.304766
97.85,-2.378535
97.9,-2.451304
97.95,-2.477194
98,-2.484148
98.05,-2.499576
98.1,-2.545279
98.15,-2.613443
98.2,-2.683961
98.25,-2.689595
98.3,-2.610411
98.35,-2.528788
98.4,-2.470009
98.45,-2.4223
98.5,-2.435142
98.55,-2.457636
98.6,-2.521769
98.65,-2.521571
98.7,-2.484122
98.75,-2.438545
98.8,-2.388037
98.85,-2.32953
98.9,-2.298591
98.95,-2.327166
99,-2.385391
99.05,-2.438306
99.1,-2.49545
99.15,-2.562027
99.2,-2.625683
99.25,-2.652321
99.3,-2.683352
99.35,-2.683813
99.4,-2.650382
99.45,-2.600757
99.5,-2.596853
99.55,-2.544496
99.6,-2.574839
99.65,-2.534254
99.7,-2.516323
99.75,-2.529848
99.8,-2.571239
99.85,-2.634844
99.9,-2.652285
99.95,-2.620161
100,-2.577625
100.05,-2.517807
100.1,-2.470958
100.15,-2.479997
100.2,-2.472453
100.25,-2.447657
100.3,-2.473179
100.35,-2.434202
100.4,-2.404633
100.45,-2.414557
100.5,-2.497747
100.55,-2.58562
100.6,-2.608838
100.65,-2.494924
100.7,-2.449986
100.75,-2.402634
100.8,-2.441199
100.85,-2.550372
100.9,-2.648642
100.95,-2.747205
101,-2.796073
101.05,-2.774748
101.1,-2.736015
101.15,-2.682797
101.2,-2.628987
101.25,-2.590501
101.3,-2.543561
101.35,-2.497994
101.4,-2.543823
101.45,-2.562308
101.5,-2.599467
101.55,-2.547705
101.6,-2.54758
101.65,-2.577708
101.7,-2.600684
101.75,-2.628044
101.8,-2.68967
101.85,-2.680913
101.9,-2.647207
101.95,-2.60025
102,-2.60423
102.05,-2.616657
102.1,-2.608347
102.15,-2.641529
102.2,-2.689173
102.25,-2.715322
102.3,-2.754992
102.35,-2.82864
102.4,-2.837019
102.45,-2.806879
102.5,-2.781031
102.55,-2.772866
102.6,-2.733433
102.65,-2.686039
102.7,-2.640413
102.75,-2.586105
102.8,-2.515314
102.85,-2.497409
102.9,-2.532012
102.95,-2.550793
103,-2.533485
103.05,-2.522685
103.1,-2.540225
103.15,-2.554423
103.2,-2.547149
103.25,-2.552105
103.3,-2.58629
103.35,-2.624164
103.4,-2.686035
103.45,-2.788107
103.5,-2.865535
103.55,-2.774112
103.6,-2.697408
103.65,-2.670659
103.7,-2.692524
103.75,-2.730611
103.8,-2.814431
103.85,-2.852155
103.9,-2.786573
103.95,-2.676533
104,-2.602281
104.05,-2.563648
104.1,-2.535249
104.15,-2.545315
104.2,-2.584311
104.25,-2.594218
104.3,-2.575392
104.35,-2.525944
104.4,-2.437408
104.45,-2.439162
104.5,-2.447413
104.55,-2.473703
104.6,-2.55531
104.65,-2.616886
104.7,-2.730762
104.75,-2.74742
104.8,-2.784474
104.85,-2.888243
104.9,-2.877256
104.95,-2.828355
105,-2.750549
105.05,-2.712109
105.1,-2.679494
105.15,-2.643926
105.2,-2.637902
105.25,-2.640148
105.3,-2.563156
105.35,-2.365747
105.4,-2.112399
105.45,-1.820559
105.5,-1.600168
105.55,-1.511757
105.6,-1.644213
105.65,-1.846098
105.7,-2.149175
105.75,-2.376661
105.8,-2.572866
105.85,-2.677794
105.9,-2.613266
105.95,-2.539713
106,-2.519128
106.05,-2.522943
106.1,-2.598891
106.15,-2.688237
106.2,-2.63047
106.25,-2.483676
106.3,-2.410088
106.35,-2.438581
106.4,-2.541421
106.45,-2.653805
106.5,-2.720445
106.55,-2.751498
106.6,-2.734188
106.65,-2.772704
106.7,-2.888836
106.75,-2.822047
106.8,-2.745168
106.85,-2.583678
106.9,-2.395183
106.95,-2.351925
107,-2.418277
107.05,-2.56225
107.1,-2.540787
107.15,-2.483183
107.2,-2.417538
107.25,-2.344364
107.3,-2.374324
107.35,-2.507919
107.4,-2.637338
107.45,-2.687697
107.5,-2.640668
107.55,-2.613284
107.6,-2.619168
107.65,-2.524894
107.7,-2.542991
107.75,-2.52924
107.8,-2.522724
107.85,-2.651669
107.9,-2.628527
107.95,-2.629702
108,-2.656603
108.05,-2.689262
108.1,-2.772055
108.15,-2.864259
108.2,-2.944972
108.25,-2.908061
108.3,-2.70411
108.35,-2.518234
108.4,-2.507904
108.45,-2.598469
108.5,-2.672905
108.55,-2.672735
108.6,-2.581372
108.65,-2.457459
108.7,-2.398948
108.75,-2.523456
108.8,-2.796668
108.85,-2.727439
108.9,-2.600056
108.95,-2.315601
109,-2.158146
109.05,-2.10682
109.1,-2.111701
109.15,-2.251005
109.2,-2.414068
109.25,-2.430401
109.3,-2.509628
109.35,-2.677356
109.4,-2.790495
109.45,-2.784581
109.5,-2.566324
109.55,-2.281546
109.6,-2.214548
109.65,-2.166431
109.7,-2.282175
109.75,-2.318416
109.8,-2.292342
109.85,-1.980305
109.9,-1.752913
109.95,-1.696575
110,-2.024544
110.05,-2.291106
110.1,-2.660203
110.15,-2.548078
110.2,-2.386477
110.25,-2.199701
110.3,-2.127214
110.35,-2.171114
110.4,-2.02589
110.45,-1.785863
110.5,-1.769264
110.55,-1.926761
110.6,-2.241938
110.65,-2.757337
110.7,-3.051213
110.75,-3.083558
110.8,-2.945408
110.85,-2.668487
110.9,-2.712982
110.95,-2.80794
111,-2.69784
111.05,-2.53958
111.1,-2.279936
111.15,-2.013522
111.2,-1.970647
111.25,-2.10751
111.3,-2.335838
111.35,-2.584049
111.4,-2.720203
111.45,-2.801213
111.5,-2.861313
111.55,-2.755815
111.6,-2.566625
111.65,-2.452914
111.7,-2.285889
111.75,-2.273069
111.8,-2.243521
111.85,-2.217669
111.9,-2.050639
111.95,-1.724011
112,-1.447681
112.05,-0.9391525
112.1,-2.884204E-02
112.15,1.072798
112.2,3.332316
112.25,6.602826
112.3,10.52558
112.35,15.66078
112.4,21.88622
112.45,28.9506
112.5,36.92484
112.55,46.66762
112.6,59.55714
112.65,74.63004
112.7,87.57361
112.75,96.3138
112.8,103.7515
112.85,110.0653
112.9,118.2572
112.95,124.5175
113,130.6841
113.05,130.4038
113.1,125.4227
113.15,116.2576
113.2,107.2325
113.25,101.387
113.3,98.51283
113.35,93.95139
113.4,87.13087
113.45,78.82033
113.5,69.1367
113.55,57.6381
113.6,45.96531
113.65,37.34587
113.7,32.03339
113.75,27.7828
113.8,24.26171
113.85,22.11334
113.9,19.68059
113.95,15.63201
114,12.75579
114.05,10.83686
114.1,9.456356
114.15,7.913585
114.2,6.541802
114.25,6.18401
114.3,5.827726
114.35,5.94004
114.4,6.131703
114.45,5.873428
114.5,5.167253
114.55,4.116084
114.6,3.186552
114.65,2.613387
114.7,2.237504
114.75,2.180913
114.8,2.381843
114.85,2.468134
114.9,2.155819
114.95,1.477692
115,1.263397
115.05,1.426643
115.1,1.488928
115.15,1.568932
115.2,1.736837
115.25,1.65555
115.3,1.57188
115.35,1.612258
115.4,1.907589
115.45,1.720975
115.5,1.392969
115.55,0.7744022
115.6,0.4374793
115.65,0.6978199
115.7,0.965141
115.75,1.215847
115.8,1.72832
115.85,2.076723
115.9,1.975661
115.95,1.72009
116,1.327342
116.05,1.055146
116.1,0.3612036
116.15,-0.6333725
116.2,-0.6115987
116.25,-0.1658742
116.3,-0.0106045
116.35,-2.560655E-02
116.4,0.3554841
116.45,0.718614
116.5,0.8254246
116.55,0.67356
116.6,0.2808485
116.65,-0.3372671
116.7,-1.063991
116.75,-1.616271
116.8,-1.777365
116.85,-1.735099
116.9,-1.713095
116.95,-1.537887
117,-1.620922
117.05,-1.834208
117.1,-1.803669
117.15,-1.860152
117.2,-1.871354
117.25,-1.845316
117.3,-1.59172
117.35,-1.453852
117.4,-1.823086
117.45,-2.208064
117.5,-2.550677
117.55,-2.695302
117.6,-2.609922
117.65,-2.387478
117.7,-2.18801
117.75,-2.213556
117.8,-2.481184
117.85,-2.789846
117.9,-2.935116
117.95,-2.818572
118,-2.589595
118.05,-2.405575
118.1,-2.344213
118.15,-2.501668
118.2,-2.703784
118.25,-2.611863
118.3,-2.521456
118.35,-2.412196
118.4,-2.471571
118.45,-2.670135
118.5,-2.816379
118.55,-2.858883
118.6,-2.841828
118.65,-2.720636
118.7,-2.477684
118.75,-2.302541
118.8,-2.35601
118.85,-2.537694
118.9,-2.708089
118.95,-2.888537
119,-3.086193
119.05,-3.172827
119.1,-2.925242
119.15,-2.52316
119.2,-2.413513
119.25,-2.401658
119.3,-2.493498
119.35,-2.667955
119.4,-2.856306
119.45,-2.974472
119.5,-2.929318
119.55,-2.920601
119.6,-2.798111
119.65,-2.658077
119.7,-2.581955
119.75,-2.585456
119.8,-2.661118
119.85,-2.789974
119.9,-2.951643
119.95,-3.067543
120,-2.997829
120.05,-2.809285
120.1,-2.837772
120.15,-2.923108
120.2,-3.03057
120.25,-3.212544
120.3,-3.396176
120.35,-3.481175
120.4,-3.341201
120.45,-3.24994
120.5,-3.291464
120.55,-3.271148
120.6,-3.28462
120.65,-3.390086
120.7,-3.373199
120.75,-3.321178
120.8,-3.300166
120.85,-3.36386
120.9,-3.387839
120.95,-3.252144
121,-3.154846
121.05,-3.172097
121.1,-3.173023
121.15,-3.162835
121.2,-3.08338
121.25,-2.934176
121.3,-2.747049
121.35,-2.613314
121.4,-2.628649
121.45,-2.656769
121.5,-2.671772
121.55,-2.732858
121.6,-2.803521
121.65,-2.981791
121.7,-3.135211
121.75,-3.283663
121.8,-3.365895
121.85,-3.395997
121.9,-3.343394
121.95,-3.232087
122,-3.150809
122.05,-3.067003
122.1,-2.996984
122.15,-3.023536
122.2,-3.104542
122.25,-3.167521
122.3,-3.223606
122.35,-3.235015
122.4,-3.124428
122.45,-2.990154
122.5,-2.949127
122.55,-2.943966
122.6,-2.983916
122.65,-3.074895
122.7,-3.123955
122.75,-3.091718
122.8,-3.024275
122.85,-3.084764
122.9,-3.217167
122.95,-3.325226
123,-3.432633
123.05,-3.487456
123.1,-3.434599
123.15,-3.372169
123.2,-3.337578
123.25,-3.325705
123.3,-3.2854
123.35,-3.288781
123.4,-3.353825
123.45,-3.331305
123.5,-3.323455
123.55,-3.330662
123.6,-3.341382
123.65,-3.333689
123.7,-3.349104
123.75,-3.395156
123.8,-3.40841
123.85,-3.394421
123.9,-3.27984
123.95,-3.115722
124,-2.989095
124.05,-2.935514
124.1,-2.998425
124.15,-3.136497
124.2,-3.256511
124.25,-3.359962
124.3,-3.366883
124.35,-3.342624
124.4,-3.365319
124.45,-3.339112
124.5,-3.391628
124.55,-3.442465
124.6,-3.485836
124.65,-3.542977
124.7,-3.484983
124.75,-3.43366
124.8,-3.420877
124.85,-3.419575
124.9,-3.443963
124.95,-3.469502
125,-3.496511
125.05,-3.520745
125.1,-3.474066
125.15,-3.394376
125.2,-3.307524
125.25,-3.082258
125.3,-2.919448
125.35,-2.948808
125.4,-3.069733
125.45,-3.24204
125.5,-3.395553
125.55,-3.463914
125.6,-3.477052
125.65,-3.416836
125.7,-3.264445
125.75,-3.158732
125.8,-3.132138
125.85,-3.142999
125.9,-3.234936
125.95,-3.382033
126,-3.5338
126.05,-3.517167
126.1,-3.307795
126.15,-3.118377
126.2,-3.059852
126.25,-3.086697
126.3,-3.211249
126.35,-3.413283
126.4,-3.539647
126.45,-3.563775
126.5,-3.502382
126.55,-3.407234
126.6,-3.382341
126.65,-3.439601
126.7,-3.298456
126.75,-3.134388
126.8,-3.06131
126.85,-3.090845
126.9,-3.163533
126.95,-3.210569
127,-3.331206
127.05,-3.434052
127.1,-3.426102
127.15,-3.382105
127.2,-3.352362
127.25,-3.338619
127.3,-3.326341
127.35,-3.274246
127.4,-3.316651
127.45,-3.405615
127.5,-3.486157
127.55,-3.572738
127.6,-3.582922
127.65,-3.568349
127.7,-3.522011
127.75,-3.441913
127.8,-3.498225
127.85,-3.541794
127.9,-3.613606
127.95,-3.647488
128,-3.6503
128.05,-3.541537
128.1,-3.376427
128.15,-3.300845
128.2,-3.31611
128.25,-3.310959
128.3,-3.239085
128.35,-3.158518
128.4,-3.071165
128.45,-2.858967
128.5,-2.717914
128.55,-2.814339
128.6,-3.014894
128.65,-3.196265
128.7,-3.360278
128.75,-3.562984
128.8,-3.665538
128.85,-3.592769
128.9,-3.568837
128.95,-3.545294
129,-3.466633
129.05,-3.444078
129.1,-3.424891
129.15,-3.426298
129.2,-3.456035
129.25,-3.489918
129.3,-3.476802
129.35,-3.374605
129.4,-3.259076
129.45,-3.186897
129.5,-3.184974
129.55,-3.211222
129.6,-3.317526
129.65,-3.373582
129.7,-3.391831
129.75,-3.416419
129.8,-3.496581
129.85,-3.569387
129.9,-3.33554
129.95,-3.109994
130,-3.056515
130.05,-3.124436
130.1,-3.304523
130.15,-3.531447
130.2,-3.716362
130.25,-3.74301
130.3,-3.609938
130.35,-3.537108
130.4,-3.610367
130.45,-3.661323
130.5,-3.689377
130.55,-3.663727
130.6,-3.56368
130.65,-3.453665
130.7,-3.407548
130.75,-3.474198
130.8,-3.515477
130.85,-3.530907
130.9,-3.501611
130.95,-3.444553
131,-3.405281
131.05,-3.412467
131.1,-3.45625
131.15,-3.49452
131.2,-3.43506
131.25,-3.354437
131.3,-3.328489
131.35,-3.364094
131.4,-3.458712
131.45,-3.583469
131.5,-3.713314
131.55,-3.789829
131.6,-3.747196
131.65,-3.654956
131.7,-3.63632
131.75,-3.566473
131.8,-3.514048
131.85,-3.4944
131.9,-3.506269
131.95,-3.588158
132,-3.596165
132.05,-3.636586
132.1,-3.673191
132.15,-3.680308
132.2,-3.668874
132.25,-3.600419
132.3,-3.504483
132.35,-3.433598
132.4,-3.350308
132.45,-3.252498
132.5,-3.206967
132.55,-3.221724
132.6,-3.308027
132.65,-3.402853
132.7,-3.467989
132.75,-3.566502
132.8,-3.627041
132.85,-3.645995
132.9,-3.669863
132.95,-3.671527
133,-3.673513
133.05,-3.62556
133.1,-3.64222
133.15,-3.69354
133.2,-3.788097
133.25,-3.842546
133.3,-3.848488
133.35,-3.827207
133.4,-3.69904
133.45,-3.533643
133.5,-3.451715
133.55,-3.38806
133.6,-3.355126
133.65,-3.403611
133.7,-3.496177
133.75,-3.639708
133.8,-3.700745
133.85,-3.688071
133.9,-3.73869
133.95,-3.658166
134,-3.59329
134.05,-3.567998
134.1,-3.606752
134.15,-3.650492
134.2,-3.692718
134.25,-3.617284
134.3,-3.520841
134.35,-3.489818
134.4,-3.530627
134.45,-3.603178
134.5,-3.657452
134.55,-3.705218
134.6,-3.747728
134.65,-3.707231
134.7,-3.645215
134.75,-3.708672
134.8,-3.721801
134.85,-3.770247
134.9,-3.78752
134.95,-3.804778
135,-3.847873
135.05,-3.686324
135.1,-3.532966
135.15,-3.47278
135.2,-3.473377
135.25,-3.504132
135.3,-3.53106
135.35,-3.54405
135.4,-3.546198
135.45,-3.430866
135.5,-3.207721
135.55,-3.055534
135.6,-3.082233
135.65,-3.240079
135.7,-3.4121
135.75,-3.551556
135.8,-3.684691
135.85,-3.741162
135.9,-3.679663
135.95,-3.601103
136,-3.681273
136.05,-3.781212
136.1,-3.648285
136.15,-3.49926
136.2,-3.472044
136.25,-3.492692
136.3,-3.575929
136.35,-3.661505
136.4,-3.757124
136.45,-3.829512
136.5,-3.81916
136.55,-3.789496
136.6,-3.760759
136.65,-3.709623
136.7,-3.692831
136.75,-3.668404
136.8,-3.643722
136.85,-3.674114
136.9,-3.704669
136.95,-3.66913
137,-3.526267
137.05,-3.330818
137.1,-3.235388
137.15,-3.242468
137.2,-3.314945
137.25,-3.482922
137.3,-3.642825
137.35,-3.727744
137.4,-3.760674
137.45,-3.773756
137.5,-3.808249
137.55,-3.84137
137.6,-3.829363
137.65,-3.780001
137.7,-3.705255
137.75,-3.579573
137.8,-3.44821
137.85,-3.467008
137.9,-3.571767
137.95,-3.675345
138,-3.729863
 
Alignment,On
